timestamp,ax,ay,az,wx,wy,wz
23,-6.82168,-3.49134,6.14951,-3.15857,-1.70898,5.46264
46,-6.55113,-3.4279,6.22852,-3.82995,-3.23486,3.38745
74,-6.59662,-3.32854,6.22732,-4.31823,-3.35693,1.49536
99,-6.53677,-3.39199,6.41287,-3.52478,-2.74658,-1.37329
123,-6.75704,-3.34769,6.27879,-6.21032,-5.98144,-0.7019
147,-6.62895,-3.29861,6.04177,-14.63317,-3.72314,-4.79126
171,-6.38953,-3.32255,5.87777,-26.65708,-9.88769,19.37865
197,-6.45058,-3.11785,5.8646,-29.76987,-6.16455,17.05931
222,-5.63416,-3.54162,6.04536,-29.52574,-14.46532,-2.22778
246,-5.8221,-3.2627,6.35301,-32.7606,-20.6909,-4.30298
271,-6.99047,-3.63739,6.04296,-41.91586,-27.70994,2.53296
296,-5.61141,-3.85287,6.63553,-44.84555,-23.01024,-4.79126
319,-5.30495,-3.99652,7.25443,-30.5023,-12.5122,-22.97972
342,-5.14933,-4.11264,7.58483,-12.80211,-9.15527,-44.95236
367,-6.38953,-4.03962,6.77679,-17.74596,-1.52588,-40.74094
391,-6.47093,-3.64338,6.22971,-24.21568,14.9536,-39.03195
417,-6.33446,-4.11384,6.195,-24.82603,11.23046,-41.59543
443,-5.89752,-4.64655,6.37336,-24.03258,18.92089,-50.32345
468,-5.17686,-5.01406,6.68581,-29.64781,41.56491,-65.33809
493,-6.29735,-6.45656,5.73292,-32.08921,47.24117,-50.32345
520,-5.86998,-6.49487,4.32991,-39.53549,26.4282,-27.92356
545,-5.10145,-5.77541,4.59328,-40.87827,10.80322,-29.32737
570,-5.15891,-6.113,5.09247,-56.38118,33.81345,-31.15842
596,-6.00167,-6.05434,4.34907,-75.05792,42.84665,-20.84349
619,-6.8133,-6.04117,4.06535,-90.25567,47.30221,-1.37329
643,-6.22911,-5.88076,3.12683,-106.49101,46.02047,14.92308
666,-5.40551,-3.74992,2.62405,-78.78107,-33.14207,-19.01244
691,-8.50839,-4.15214,3.0969,-93.6126,-73.66937,-9.18578
716,-8.19715,-6.30333,4.96438,-105.94169,-40.52731,16.32689
741,-7.75542,-8.03434,4.22816,-121.93289,17.45604,36.89573
766,-6.54275,-6.44699,2.45885,-150.80251,29.84617,29.14427
792,-3.55479,-3.58113,-0.08739,-212.26486,2.99072,-9.79614
816,-2.6845,-3.82055,1.64003,-236.49579,55.54195,-52.39864
843,-1.26713,-4.38079,1.37786,-247.05489,103.63762,-135.9557
868,-5.31333,-8.62212,0.91219,-125.77811,-77.6977,-102.87468
894,-2.1075,-5.04518,1.66876,-48.9349,-113.58634,-144.8058
920,-2.63422,-5.70119,1.29766,19.66856,-129.76065,-228.11873
947,-1.42515,-8.03314,-0.86431,33.03526,-226.25716,-266.57083
973,-5.33129,-19.40321,-3.65116,-34.83579,-372.19211,-185.76036
1000,-9.96167,-25.95973,-1.10971,-172.95824,-170.22691,56.24385
1028,-6.12856,-20.87086,3.24414,-124.98465,-39.55075,73.02851
1055,1.06722,-7.26461,5.20021,-70.78547,32.1655,29.81565
1082,1.65619,-6.26862,5.3678,-14.63317,35.88865,4.11987
1110,-1.70766,-10.69191,2.38822,16.98302,59.50923,11.32201
1137,-4.38438,-9.98562,1.80643,34.07285,103.27141,28.90013
1165,-3.47698,-8.90104,0.95888,33.15733,72.26557,0.03052
1193,-6.05434,-11.50234,-2.37026,19.05821,-23.25438,8.63647
1219,-5.78619,-12.06378,-2.24456,-14.87731,-38.87937,33.59983
1246,-2.91314,-8.506,-2.11647,-58.63948,-1.34277,-10.16235
1272,-0.56683,-10.01076,-1.60412,-59.98226,-65.36861,-37.81125
1300,-0.63386,-9.168,-1.33716,-80.61212,-110.29044,-55.99971
1329,-1.13186,-10.22983,6.67982,-45.39486,-74.95112,-88.95867
1357,-3.2615,-9.73183,8.53533,43.83847,-53.83297,-77.42303
1385,-2.8497,-9.34876,4.94881,96.75591,-68.78657,-85.72382
1411,0.39804,-8.44495,-0.73263,106.33842,-138.12247,-107.81853
1438,1.67415,-9.75099,-0.17957,107.13188,-149.53603,-108.61198
1464,1.71006,-13.46439,1.70587,122.51272,-115.53947,-133.33119
1490,-7.98646,-17.5465,3.86065,103.95805,-19.4702,-47.75998
1515,-8.85077,-14.6567,2.44448,98.4649,29.60203,10.71166
1540,-8.87351,-12.58213,-0.14485,98.89214,45.83737,102.14226
1568,-3.38361,-11.77169,0.28611,103.65288,18.67674,141.08266
1595,-1.48859,-10.571,-1.67714,67.5201,-94.29925,138.94643
1620,1.29227,-7.91463,-4.10606,-4.62341,-143.43251,72.78437
1647,-1.22404,-7.25024,2.07817,26.26036,-129.82169,44.76925
1675,-1.20249,-7.70634,0.56862,61.84383,-122.86369,47.27169
1703,0.29748,-7.8859,-2.01352,36.69736,-145.56874,25.17698
1730,0.68654,-8.257,1.37188,26.07725,-92.22405,18.70726
1756,1.65739,-8.3013,1.488,13.25988,-46.63083,11.32201
1783,1.65619,-7.66085,1.88304,2.63977,-1.2207,18.03587
1811,1.24558,-6.78696,2.96402,-2.12097,55.48092,15.59447
1838,0.35853,-7.02758,2.33195,-18.72252,68.05415,15.10619
1866,-1.93033,-7.74225,1.81241,-44.72348,25.63475,17.18138
1893,-2.87005,-7.93498,3.91572,-56.50325,23.68162,21.63695
1922,-4.06236,-9.26377,6.29795,-42.52621,59.08199,44.34201
1949,-2.67133,-12.36426,9.39724,-20.37047,50.59811,36.83469
1976,-0.54528,-13.0071,6.54575,-23.17808,-35.6445,19.37865
2003,-0.26276,-11.17075,3.51948,-29.15952,-101.37932,29.2053
2029,1.16059,-8.44734,2.2709,-39.9017,4.5166,24.56663
2056,0.89124,-11.86147,0.99479,-43.1976,125.73232,2.47192
2084,-0.44951,-13.09569,-0.00239,-29.95298,193.84752,-9.97924
2111,-1.20608,-7.83203,5.10803,-17.37975,162.47546,-1.06811
2139,-1.17376,-5.62578,3.08493,-14.08385,90.27093,-13.39721
2167,0.08799,-7.56029,-4.71299,-3.58581,0.48828,-52.70382
2194,-1.42275,-8.93815,-2.96522,-17.01354,-31.55515,-73.51679
2222,-1.79146,-9.06624,-0.99479,-69.68684,41.80905,-80.59686
2248,-3.57873,-10.6548,-0.46328,-59.31087,30.57859,-48.73653
2274,-2.98497,-10.27292,0.29209,-41.18344,40.34421,-37.62815
2301,-2.6414,-10.16638,0.93374,-35.93442,99.30413,-37.56711
2330,-2.83294,-9.97005,0.51954,-18.1732,112.54874,-29.2053
2358,-3.37882,-9.63008,-0.70629,-10.66589,73.60834,-6.2561
2386,-2.9323,-9.14166,-1.8986,-23.60533,32.95896,-1.7395
2413,-3.08553,-8.70831,-1.38026,-43.3807,38.57419,0.21362
2442,-2.45346,-8.59459,-1.01394,-53.14632,59.14302,-7.17163
2469,-2.56239,-9.62649,-0.04669,-51.86458,85.57123,0.76294
2496,-2.03088,-10.22743,-0.49321,-56.44222,65.91792,2.71606
2524,-1.31142,-10.59494,-0.54947,-69.19856,46.50875,1.7395
2551,-0.50338,-10.21307,0.60693,-68.16096,56.03023,-24.13939
2579,-0.79308,-10.58058,2.16196,-22.56773,57.92232,-40.4968
2606,-3.29861,-11.36468,2.32716,0.19836,92.04095,-14.4348
2630,-1.37008,-9.69831,2.21464,10.5133,106.2011,-23.77317
2655,-1.59394,-9.61212,1.55144,39.93222,85.44916,-32.13498
2683,-5.38875,-11.8938,3.16992,70.99909,106.68937,-12.11547
2712,-6.24827,-12.16793,4.03782,112.13676,158.20302,33.905
2739,-5.4917,-13.0909,6.69778,182.4492,101.19621,83.89276
2766,-2.72161,-12.81317,-5.99628,166.33594,-134.46034,124.05386
2796,-1.47064,-12.25891,-6.94438,123.18411,-210.81528,116.05826
2822,-0.6207,-12.32355,-2.96282,94.68072,-143.12733,68.08466
2847,-1.84413,-11.55382,-2.18591,46.46298,9.88769,55.57247
2873,-3.16693,-10.51474,-1.36829,20.15685,79.65082,83.40448
2902,-2.396,-8.2977,-0.22625,12.34435,35.40036,108.42888
2931,-0.99419,-8.29172,-1.0319,17.53234,-111.20597,97.8698
2959,-0.01975,-9.69712,-1.21266,9.23156,-188.65953,78.3996
2985,0.56084,-9.52832,-0.42018,2.02942,-133.1786,64.54463
3009,1.0337,-8.58142,-0.35314,-1.51062,-67.62691,51.72726
3032,1.55803,-7.6405,-0.2071,-6.88171,-10.37597,38.60471
3055,2.05722,-6.94019,-0.08499,-15.91491,23.62059,24.38353
3080,2.24875,-6.18841,0.91459,-24.45982,52.4902,0.7019
3105,0.7428,-6.80612,1.72383,-29.40366,68.78657,-21.57591
3130,-1.1977,-7.83203,2.31878,-38.55893,47.05807,-43.30441
3159,-3.97138,-9.47326,2.80481,-59.43294,23.19334,-57.95284
3186,-5.88076,-10.38425,4.28802,-56.56429,46.14254,-27.74046
3213,-10.04906,-11.04745,6.67144,-31.23472,169.73865,44.34201
3241,-10.07061,-10.40101,5.16549,16.06749,107.78801,62.10322
3269,-3.31178,-4.45022,-1.86628,-39.41342,-47.79049,-41.29025
3296,-1.02651,-5.94301,-3.94325,-81.64972,-155.63954,-68.69501
3324,-1.36051,-14.88655,-2.03747,-78.659,-204.7728,-57.5256
3350,-2.52289,-18.88965,6.66187,-43.25863,-31.00583,8.45336
3379,2.99934,-8.6281,4.94762,6.48498,134.15517,25.05491
3408,4.02286,-5.61141,-4.55856,-9.44518,-2.56347,-42.9382
3436,2.18531,-5.52761,-5.88734,-7.06481,-101.19621,-61.37081
3463,-0.83019,-8.11934,-1.54187,2.21252,-109.49699,-63.446
3491,-1.24917,-9.22306,-1.19471,0.74768,-90.45403,-64.54463
3519,-2.10989,-10.46805,-1.43173,-18.29527,-74.46284,-55.6335
3548,-2.52888,-10.32559,-1.29526,-51.3763,-50.47604,-40.19162
3575,-2.8485,-9.60254,-0.63686,-62.4847,-13.97704,-32.13498
3602,-2.67492,-9.14166,0.54588,-58.27327,31.73826,-34.33225
3629,-3.43029,-9.44094,0.90022,-53.02425,73.12006,-21.08763
3655,-3.4674,-9.06864,-0.64643,-53.6346,70.9228,-6.74438
3683,-3.03046,-8.73225,-0.51715,-62.54573,93.81097,-6.50024
3710,-2.82217,-9.01956,-0.21548,-65.47542,108.09318,-0.57983
3737,-1.96504,-9.98203,-0.95409,-72.25031,82.58051,2.65503
3765,-1.61549,-10.62487,-0.79248,-83.78595,52.18502,-1.98364
3793,-1.42036,-11.21145,0.22027,-73.47102,37.7197,-15.41137
3821,-1.59514,-10.56382,3.10289,1.23596,17.51708,-39.4592
3849,-3.12024,-11.13603,1.74178,28.27452,7.50732,-31.28049
3876,-2.69048,-10.97682,-1.13485,14.54161,-4.39453,-24.07835
3903,-3.2208,-11.23419,-0.84755,13.38195,-18.2495,-14.86205
3931,-3.35727,-11.91295,2.04704,42.92294,65.61275,9.97924
3957,-3.08912,-10.47164,4.93086,88.33306,142.21181,24.38353
3985,-3.48656,-11.17194,5.11282,148.63574,204.65073,58.50216
4012,-2.96462,-11.80521,4.18387,192.15379,133.6669,96.09978
4039,-1.63943,-11.57297,-7.70215,141.18947,-105.83488,123.99282
4065,-0.80505,-12.16913,-6.11479,103.22563,-172.24109,105.98746
4094,-0.04968,-13.30997,-2.17274,72.09772,-69.03071,63.6291
4123,-3.14538,-11.37306,-2.33076,29.43418,24.78025,76.32441
4151,-3.82294,-9.46607,-1.02113,21.56065,36.43796,104.88884
4178,-1.21206,-7.95773,-1.25935,27.48106,-59.08199,92.37664
4205,-0.52852,-8.72746,-1.82438,16.12853,-141.96767,83.46552
4232,-0.54648,-9.56783,-1.12408,0.68664,-137.69521,77.30096
4260,1.38205,-7.84041,-0.70629,-14.63317,-76.29389,54.53487
4286,1.95427,-6.6074,-0.45969,-19.39391,-14.58739,32.6843
4311,2.12306,-6.13933,-0.27892,-22.20152,24.53611,14.06859
4338,2.33495,-5.9873,0.10056,-30.74644,50.10983,-7.96508
4366,1.06961,-6.88513,0.97205,-34.22544,70.31245,-24.87181
4394,-3.28185,-9.35834,3.56138,-31.90611,73.66937,-36.52951
4421,-4.9554,-8.96449,2.63602,-67.67268,88.07366,-51.42208
4450,-6.37516,-8.9609,2.74854,-74.26447,106.99455,-40.61887
4478,-14.16589,-13.36384,7.18979,-27.81675,150.75673,34.21018
4505,-15.00745,-12.98316,5.95079,12.22228,63.41548,48.4924
4532,-1.58556,-8.00202,-5.66109,-46.43246,-68.60346,-67.90156
4559,-1.09116,-12.40137,-2.87304,-57.66292,-174.86559,-78.03339
4587,-1.17376,-16.52059,4.88178,-11.76452,-142.51698,-21.14867
4613,1.00736,-10.64043,1.29287,-5.78308,-71.71626,11.68822
4641,3.13221,-6.54156,-0.78051,-21.10289,-15.01464,-29.99876
4668,3.14658,-4.69563,-2.73418,-27.2064,-47.97359,-61.06563
4695,-0.8254,-7.8883,-1.67953,-5.05066,-82.21429,-51.91036
4723,-0.659,-9.11293,-1.78967,1.90735,-89.90472,-54.35176
4751,-1.25516,-10.54825,-1.652,-5.41687,-94.48235,-52.1545
4778,-1.6921,-10.39503,-1.53109,-29.95298,-75.13422,-48.30929
4806,-2.25713,-9.52952,-1.1995,-64.31574,-7.9956,-45.01339
4831,-2.16496,-9.63247,0.90501,-61.08089,59.81441,-50.38449
4857,-2.92272,-9.48403,0.51236,-42.03793,79.58978,-42.26682
4883,-3.29622,-9.1656,-0.02035,-39.77963,95.82512,-34.02707
4910,-3.39199,-9.17877,-0.52553,-56.01497,127.38028,-18.82933
4937,-3.66852,-9.06145,-1.29646,-64.55989,104.73625,-9.18578
4964,-2.96103,-9.47685,-1.37906,-72.61652,47.54635,-2.41089
4992,-2.16496,-10.54227,-0.66439,-87.32598,19.71434,6.80541
5019,-1.35093,-10.83795,0.10175,-84.94562,2.86865,-3.50952
5045,-0.6614,-10.53509,1.87825,-40.87827,12.63427,-23.65111
5072,-2.34452,-10.91816,2.73897,9.65881,33.81345,-34.08811
5099,-2.90237,-10.984,0.92895,21.62169,39.06247,-29.69358
5127,-3.13221,-10.83556,-0.75298,13.07677,16.35741,-20.23314
5154,-4.31136,-12.57135,3.73615,22.90343,72.50971,7.90405
5181,-3.32255,-11.43172,6.71334,101.76079,162.78064,35.61399
5208,-3.7595,-11.233,4.93445,174.14844,174.19421,91.27801
5235,-2.99694,-13.2118,1.90938,202.71286,118.16398,135.65053
5262,-1.17256,-12.35109,-3.3016,156.14307,-5.61523,151.88586
5290,0.71287,-14.21378,-5.44082,108.65776,-132.50723,126.7394
5318,1.86089,-15.13554,-1.02711,79.23884,-2.86865,75.1037
5345,0.92237,-12.93767,-1.09894,35.84287,58.77681,65.33809
5373,-4.57831,-8.57064,0.74699,20.70616,73.54731,106.59782
5400,-3.73436,-7.56987,0.30765,35.17148,11.4746,105.62126
5427,0.40402,-8.13969,-1.48321,33.88975,-100.03655,62.59151
5453,0.51535,-8.25341,-0.35195,21.01134,-109.13078,47.21066
5479,1.29107,-7.45614,-0.20351,3.12805,-58.59371,34.82053
5506,2.11109,-6.34763,-0.33758,-12.19176,-2.92969,20.53831
5532,2.26432,-5.1194,-1.15999,-36.48374,46.32565,-2.28882
5560,1.78069,-5.27981,-1.18633,-51.68148,54.19918,-30.2429
5587,-2.46184,-9.14286,1.67714,-54.36702,61.21821,-38.48264
5613,-4.81175,-11.45805,4.38019,-48.01937,39.42868,-43.12131
5639,-6.28059,-10.93252,3.5494,-67.30647,44.25046,-59.11251
5665,-11.62445,-10.45368,7.45554,-31.723,118.28605,-22.49144
5692,-13.76127,-12.45763,4.90931,-27.02329,107.05559,38.97092
5719,-10.7338,-11.1887,5.21337,-2.60925,1.40381,4.36401
5747,-1.48022,-8.55748,-4.61841,-44.47934,-109.13078,-56.73214
5774,-0.28671,-11.36587,-3.07894,-46.61557,-194.8851,-66.25362
5800,-0.36691,-15.55214,2.84311,-18.23424,-124.75577,-29.32737
5826,-0.16101,-10.86189,0.38906,-15.06041,-58.83784,11.62719
5854,2.22242,-6.62296,-0.06225,-21.16393,-5.7373,-16.02172
5881,2.4367,-4.5424,-2.1057,-34.83579,-63.59858,-61.00459
5908,-1.05764,-7.1856,-1.92973,-34.83579,-117.55362,-65.27705
5936,-1.55324,-9.23503,-1.39582,-19.63805,-142.57802,-50.50655
5963,-1.5269,-10.59973,-1.78727,-12.86315,-135.55899,-29.75462
5991,-1.98419,-11.44249,0,-24.70396,-52.79537,-1.7395
6019,-1.27312,-9.75099,0.97803,-54.42806,95.39788,-6.31713
6047,-0.8278,-8.56466,1.08098,-33.92026,130.00478,-17.05931
6075,-1.06482,-8.5048,-0.1245,-18.41734,117.37051,-28.77806
6102,-1.37846,-8.69155,-1.12767,-27.57261,105.16349,-42.69406
6129,-2.50972,-9.54867,-0.79727,-43.80795,141.23526,-46.35617
6168,-3.16454,-9.79647,-1.22104,-58.45638,147.21667,-37.99435
6195,-3.4698,-10.29567,-2.08056,-72.79963,76.96528,-36.83469
6223,-3.44945,-10.55424,-1.90578,-76.2176,13.36669,-38.11643
6249,-2.93469,-10.54706,0.21308,-75.24104,-0.06104,-51.36105
6276,-3.54761,-11.13364,2.11408,-45.4559,32.34861,-53.43624
6303,-4.34248,-11.62804,2.5594,-0.65613,60.18062,-18.82933
6329,-2.7671,-10.47284,1.87227,25.22276,59.32613,-7.84301
6357,-2.68809,-11.07977,2.24816,68.74079,56.57955,9.36889
6384,-4.44903,-11.37545,2.36308,99.68559,61.82857,35.91916
6409,-5.13975,-12.43129,4.45561,143.93605,112.3046,72.84541
6435,-3.15376,-12.17272,4.00789,190.26169,117.55362,96.71013
6462,-1.54486,-11.53347,0.96486,176.34569,4.21142,130.64566
6489,-0.5788,-12.60128,-7.96431,126.17484,-134.15517,128.93668
6516,0.83258,-13.63318,-3.68109,88.94341,-72.14349,84.44207
6544,-0.62788,-11.30722,-2.40258,41.6412,26.67234,62.83564
6571,-3.06877,-9.37869,-1.35632,9.90295,64.69722,88.28728
6598,-5.17447,-8.34679,0.7039,19.79064,90.75921,120.75797
6625,-1.18214,-7.67162,-2.45406,12.16125,-104.91936,90.66766
6651,-0.79547,-8.83999,-1.50356,-5.90515,-167.72449,78.15546
6678,-0.48303,-8.93696,-0.69192,-19.27184,-137.02382,67.90156
6703,2.29305,-7.36756,-0.72784,-22.93394,-83.49603,45.07443
6729,2.26312,-6.79055,-0.98761,-31.17368,-28.32029,33.66086
6757,2.71083,-6.15968,-0.84156,-46.06625,25.14647,2.22778
6785,1.73161,-7.36157,0.87269,-48.81283,47.54635,-28.77806
6813,-0.4938,-9.18476,3.28604,-40.38998,34.66794,-45.13546
6839,-2.35051,-9.46368,4.16232,-55.83187,18.31053,-66.55878
6865,-7.40347,-10.45249,4.48673,-66.45197,71.89936,-35.85813
6892,-11.60889,-12.41214,7.48547,-19.45494,184.63121,40.86301
6919,-15.05294,-15.16308,12.85926,13.32091,114.25773,32.92844
6946,-1.18932,-5.29538,-3.29921,-33.85923,2.4414,-76.01923
6972,-0.06644,-7.57705,-6.57568,-57.90706,-172.66833,-104.8278
7000,-4.17249,-17.79071,4.14556,-35.44614,-171.02039,-51.60519
7027,-4.72316,-14.63157,1.19231,-34.40854,-89.53851,13.27514
7057,-1.09834,-9.37629,0.48722,-17.13561,-15.9912,9.97924
7085,3.13102,-4.78661,-0.41899,-17.62389,10.13183,-40.25266
7111,1.55922,-5.95019,-2.71742,-34.40854,-47.91256,-69.42744
7138,-0.87807,-8.3815,-2.82157,-31.84507,-98.81584,-71.13642
7164,-2.09792,-10.27891,-1.50715,-25.19224,-135.07071,-58.19698
7192,-2.18291,-10.51593,-1.09535,-36.05649,-128.41788,-46.35617
7219,-2.15658,-9.68634,0.52433,-48.99593,-77.6977,-35.36985
7247,-2.24397,-9.19314,1.25815,-33.06577,-40.58835,-30.18186
7275,-2.23319,-8.97886,1.38026,-15.24352,18.00536,-25.66526
7303,-3.16454,-8.96569,-0.78889,-24.15464,68.05415,-5.46264
7331,-2.72041,-8.88788,-0.83199,-33.55405,112.36564,-2.65503
7359,-2.2703,-9.09617,-1.56102,-47.10385,126.89199,-1.61743
7387,-2.1865,-9.67437,-2.11647,-64.98713,68.6645,-4.05884
7414,-1.81899,-10.30644,-2.40498,-84.27423,-1.2207,-7.65991
7441,-1.17256,-10.64642,-0.92057,-97.45781,-53.16158,-13.51928
7468,-0.72245,-10.42615,1.78607,-87.38702,3.2959,-32.6843
7494,-2.08715,-11.40538,4.22457,-12.31383,35.94968,-28.96116
7521,-2.85808,-11.10491,1.60172,39.26084,27.09959,-15.89965
7548,-2.79703,-11.01033,-0.96127,17.2882,39.1235,-9.36889
7574,-2.67971,-11.4772,0.70749,39.01669,71.28901,-5.46264
7603,-4.64296,-11.27489,3.77326,99.44145,107.72697,15.16723
7630,-5.59226,-11.85669,5.11282,145.76709,181.76256,55.38937
7659,-1.4024,-10.9026,2.06859,202.7739,172.54626,89.81316
7687,-1.99377,-11.4365,-5.01106,165.35938,-74.52387,134.18568
7714,-0.94032,-11.6448,-8.75679,118.42338,-215.27083,126.25113
7741,1.00137,-14.81113,-0.91578,93.52105,-120.78848,78.27753
7769,-0.72006,-13.68107,-1.33237,34.6832,52.36813,72.41816
7797,-5.76344,-9.0854,0.10175,7.27844,98.14445,122.22281
7823,-3.69365,-6.87675,0.4525,24.18516,61.76753,125.70181
7850,-1.39642,-6.54156,-3.36984,2.7008,-136.23036,87.31072
7877,-0.37888,-8.61613,-1.23062,-13.22936,-187.07262,72.47919
7904,0.67217,-7.90745,-0.87388,-29.09849,-142.15077,51.17794
7932,2.396,-6.49128,-0.31963,-38.19272,-70.67866,28.47288
7960,3.31896,-5.32889,-0.19992,-47.04281,5.12695,6.31713
7987,3.80858,-5.46776,-0.08739,-56.44222,43.88425,-27.13011
8014,2.37804,-7.28017,0.36033,-57.23567,66.28413,-46.47823
8041,-2.73717,-11.20427,5.4516,-46.12729,66.95552,-54.53487
8068,-5.26664,-11.04984,6.51582,-57.78499,161.43787,-36.40744
8096,-13.85704,-12.09371,5.01106,-52.71908,175.41492,29.32737
8123,-16.08245,-13.58171,8.59279,32.85215,76.6601,64.42255
8149,-5.56592,-6.79534,-0.6596,-20.49254,4.39453,-71.4416
8176,-2.18411,-9.47326,-6.61877,-78.17072,-132.01895,-105.56023
8204,-2.56599,-15.30912,-0.81044,-64.19368,-190.8568,-62.04219
8231,-3.66732,-18.34138,3.52546,-19.51598,-103.45451,9.49096
8257,1.51852,-8.45333,3.95163,6.54602,47.36325,14.67894
8284,3.85646,-5.34446,0.90621,-14.32799,70.49555,-26.27562
8311,2.74675,-4.55317,-4.97395,-41.42758,-41.44284,-60.08907
8339,-0.73921,-8.25461,-2.01233,-14.99938,-100.6469,-68.51191
8365,-0.91758,-9.2087,-2.71622,-12.74108,-141.90663,-71.13642
8391,-1.5293,-10.31841,-2.84431,-21.16393,-153.74745,-55.75558
8417,-1.9806,-10.90858,-0.39504,-38.681,-110.22941,-42.32785
8445,-2.10989,-10.13047,0.662,-52.4139,-34.54588,-35.06467
8471,-2.40079,-9.2889,1.41497,-39.16928,35.58347,-33.84397
8497,-2.56838,-9.2506,0.98761,-18.72252,73.66937,-30.30393
8523,-2.90237,-8.94893,-0.23703,-19.88219,92.6513,-21.63695
8550,-3.1801,-8.98843,-0.79368,-36.2396,117.61465,-13.51928
8577,-2.78745,-9.50678,-1.33477,-53.02425,96.49651,-11.50512
8604,-2.60429,-9.6193,-1.53827,-65.96369,52.55123,-10.52856
8631,-2.24636,-9.93294,-0.77931,-80.73419,13.85497,-4.18091
8659,-1.63225,-10.20469,0.09098,-86.89874,7.32421,-3.93676
8686,-0.72604,-10.03829,1.49159,-56.99154,11.23046,-28.04563
8713,-1.65978,-9.90661,1.97641,1.84631,-14.83153,-55.02316
8740,-3.14299,-11.15399,0.31963,23.0255,-38.69626,-46.90548
8766,-3.51529,-11.18272,-0.44173,-5.41687,-9.76562,-15.83861
8794,-2.311,-10.30764,-0.42138,4.776,-27.58787,-16.51
8821,-2.62464,-10.66198,1.52391,29.92246,39.73386,-1.86157
8848,-2.16735,-10.62247,4.4987,74.60017,139.16005,4.85229
8874,-4.08511,-11.66276,4.31435,128.06693,206.35971,32.44016
8902,-4.09468,-13.10885,5.48152,178.72606,240.0511,70.404
8929,-2.97659,-12.3858,-9.17219,163.89453,-52.91744,124.17593
8956,-1.79745,-12.76888,-7.92122,124.0386,-229.492,132.59879
8982,-0.87688,-14.10963,-1.83516,89.37066,-136.2914,101.53191
9009,-0.43155,-13.47517,-3.0574,34.25595,-46.63083,63.50703
9037,-2.96103,-10.30285,-2.34871,23.39171,-25.08543,83.40448
9066,-3.35248,-9.2901,-0.66439,24.61241,1.2207,108.36784
9093,0.49141,-8.51797,-1.82199,10.5133,-49.49947,100.49431
9120,0.90202,-8.76457,-1.34674,-2.48718,-101.13518,81.63446
9146,0.83617,-8.62571,-1.13725,-10.42175,-104.37004,63.446
9172,1.26833,-7.14849,-1.10732,-16.58629,-74.27972,37.93332
9200,0.90561,-6.95336,-1.14563,-29.4647,-46.38668,14.2517
9228,-1.05046,-6.9797,0.4561,-34.04233,-41.68698,-6.37817
9255,-2.86646,-7.94935,1.49159,-37.94858,-74.34076,-13.39721
9282,-3.44585,-8.16243,3.33991,-52.16976,-95.21477,-30.12083
9309,-3.84928,-9.60733,2.53666,-75.17999,-120.66641,-43.42648
9335,-4.60465,-9.69352,3.50152,-56.68636,-144.1039,-29.51048
9363,-6.08187,-9.63247,6.82467,-19.88219,-84.6557,0.21362
9390,-8.07744,-11.69627,4.16471,-19.82115,-91.85784,42.20578
9416,-4.63577,-8.80647,2.02071,-36.72788,-87.46331,52.09347
9443,-0.32501,-4.34727,-3.84509,-71.63996,-185.3026,-3.38745
9471,1.19171,-8.43537,-4.21499,-86.28839,-222.47298,-50.68966
9497,-0.37529,-16.3937,1.84832,-76.52277,-103.39348,-71.86884
9524,-3.19446,-22.70601,3.95163,-43.86899,-54.50435,-0.88501
9551,0.05926,-8.95132,-2.53187,-28.36607,-84.96088,30.54807
9578,0.67576,-5.73711,-3.13162,-43.50278,-124.87784,19.62279
9604,1.27192,-4.73633,-2.81917,-65.47542,-150.81776,-15.10619
9631,-1.20608,-10.27532,-1.77889,-96.35918,-152.95398,-18.52416
9658,-2.19129,-11.78965,0.08619,-105.88065,-123.5961,-12.11547
9685,-2.98737,-11.22821,1.28329,-92.08672,-113.22013,-10.34545
9711,-3.99413,-9.60973,2.78924,-36.66684,-143.92079,-2.65503
9738,-3.38361,-9.53311,0.42617,-38.07065,-160.33923,0.88501
9765,-2.42712,-9.21468,-1.00676,-42.95346,-192.44371,-5.46264
9792,-1.58317,-9.35115,-1.10612,-39.04721,-208.31284,-10.83373
9819,-1.66217,-9.59776,-1.09535,-28.91538,-204.40659,-11.26098
9847,-1.58317,-9.42896,-1.27012,-23.48326,-176.81873,-8.14819
9875,-1.31741,-9.29609,-1.32399,-30.74644,-149.6581,-7.59887
9901,-1.16059,-9.51635,-1.12288,-29.52574,-138.97694,-13.15307
9929,-1.68492,-10.84992,-0.63327,-21.77428,-136.77969,-11.26098
9957,-1.46944,-10.99836,-0.61651,-20.00426,-122.19229,-12.35961
9983,-0.80984,-10.31841,-0.36631,-11.76452,-110.90079,-25.78733
10011,-1.14742,-9.66001,-0.00958,3.37219,-102.41692,-34.57639
10037,-1.24439,-9.50079,-0.11372,11.61193,-93.07854,-49.83517
10065,-2.49655,-10.43932,-1.19351,13.38195,-97.04583,-64.6667
10092,-3.41952,-10.79007,-1.60531,-3.40271,-96.98479,-61.92012
10120,-4.0444,-10.43573,-1.39702,-23.97154,-87.76849,-53.80245
10147,-4.51726,-9.57501,2.47321,-30.13609,-21.36229,-54.04659
10174,-4.97216,-9.72106,4.48793,9.90295,60.18062,-46.47823
10200,-4.81654,-9.68874,5.11042,69.41218,46.14254,-32.80637
10225,-4.62141,-11.44488,-0.23583,96.69487,-60.85201,-19.62279
10251,-4.03004,-11.42094,-1.64003,87.60065,-192.93199,-7.04956
10277,-2.87843,-10.09695,0.05986,89.7979,-244.38458,14.12963
10305,-2.07278,-11.26532,-1.02951,84.97614,-233.88655,35.18674
10333,-1.75315,-12.20145,-3.04423,71.85358,-184.02086,44.28098
10361,-1.23242,-12.61565,-4.72855,55.86238,-161.31581,51.84933
10388,-3.24714,-10.26334,-3.33393,34.37803,-94.54339,97.38152
10415,-3.46381,-9.20271,-2.61926,1.17493,10.98632,134.61293
10442,-1.99497,-8.85436,-0.10415,-22.14049,82.27533,138.27505
10470,-1.99617,-9.09258,-0.3735,-18.23424,49.49947,133.88052
10497,-1.14982,-9.3739,-2.72819,-18.29527,-101.13518,107.2692
10524,1.12468,-11.148,-0.19752,-7.85827,-155.57851,85.54071
10550,0.44353,-11.50953,0.28611,-18.72252,-130.00478,89.81316
10578,0.31783,-10.59255,0.91578,-20.55357,-101.80656,81.14618
10605,-0.97384,-9.2075,0.54229,-6.57653,-103.0883,68.69501
10631,-1.46944,-9.25778,0.32681,-1.02234,-103.14934,56.97628
10659,-1.71604,-9.28771,0.80206,-0.65613,-90.5761,45.86789
10685,0.40761,-9.21349,1.56341,-9.20104,-78.0639,37.81125
10713,1.49338,-8.41143,1.60172,-16.9525,-54.56539,27.61839
10741,1.76513,-7.45375,1.92374,-30.01402,-10.2539,10.52856
10768,-2.93469,-6.46015,1.48321,-46.24936,14.52636,2.89917
10795,-6.33566,-7.83443,1.82678,-65.47542,21.54539,10.71166
10821,-6.76542,-9.13448,1.90818,-74.63068,13.97704,-2.9602
10848,-8.17919,-9.4158,4.78601,-40.45102,8.97216,4.60815
10875,-6.84682,-9.08061,4.03543,-50.64388,-47.79049,2.34985
10902,-0.27114,-7.91343,-1.10373,-80.12384,-63.29341,-35.73606
10928,0.67098,-13.15315,-1.71904,-78.41486,-84.47259,-73.33369
10955,-0.03053,-18.42518,-0.01915,-15.67076,-88.56195,-58.56319
10981,-0.04848,-13.26687,6.13634,14.96886,-0.91553,16.93724
11008,3.62303,-6.74267,0.39265,21.13341,71.47211,-8.14819
11035,3.51648,-4.03962,-7.78475,-15.06041,-50.65914,-48.24826
11062,0.42796,-5.46417,-1.38744,12.40539,-72.32661,-61.85909
11089,-0.23523,-8.1756,-1.06781,38.52842,-50.17086,-75.40888
11115,-1.46824,-9.60614,-2.06141,21.9879,-39.1235,-68.32881
11141,-2.25474,-11.25095,-3.85586,-20.61461,-64.08687,-64.42255
11168,-2.74914,-10.99956,-3.25492,-79.75763,-80.01703,-54.84005
11196,-2.84132,-10.36749,-1.7753,-103.37822,-42.29733,-40.92404
11223,-3.21362,-9.65881,1.18992,-101.05888,28.99168,-28.65598
11251,-3.72837,-9.98322,1.67474,-80.12384,78.55219,-12.54272
11279,-4.08032,-9.92696,1.46166,-58.33431,110.22941,7.84301
11305,-2.43311,-9.55705,0.5363,-55.83187,132.26309,11.13891
11332,-2.1901,-9.86112,-0.1652,-63.58332,115.23429,19.56175
11360,-1.32818,-10.57818,-0.74819,-75.72931,84.04535,19.50072
11388,-0.7033,-10.5686,0.24421,-81.46661,64.26997,9.42992
11414,0.31544,-10.14244,3.3878,-26.35191,69.82417,-14.98412
11441,-1.43113,-10.02632,0.60693,49.51473,-21.05711,-38.23849
11468,-2.57676,-10.30285,-1.94529,35.17148,-76.04975,-37.81125
11496,-3.55958,-11.13364,-3.32076,-0.16785,-57.43404,-23.28489
11524,-3.15975,-12.14279,-0.21308,12.03918,-2.2583,-0.7019
11551,-1.72083,-11.55621,0.92177,24.2462,72.75385,4.11987
11578,-2.24277,-11.92133,4.37301,67.33698,160.2782,17.97484
11604,-3.53683,-11.233,4.4987,112.07572,198.54723,45.80685
11629,-3.52127,-10.88344,6.54096,171.27979,213.3177,89.01971
11656,-1.39522,-10.29686,2.88741,190.93309,82.15326,120.94107
11682,-0.08559,-11.81598,-6.41526,114.63919,-93.99407,133.45326
11712,1.07919,-13.02745,-6.03339,91.62896,-168.88414,93.59734
11740,0.80026,-13.07174,1.3611,75.08844,36.37693,61.61494
11767,-1.06602,-10.47164,-0.8679,33.15733,109.8632,85.60175
11793,-1.72323,-8.60775,-0.16281,27.05381,70.80073,95.06219
11820,-1.83695,-8.04751,-0.24421,40.4205,-33.69138,82.67206
11846,-1.26833,-9.10575,-0.6596,30.89902,-90.69818,69.73261
11872,-0.7452,-9.49121,-0.413,9.59777,-81.48187,58.19698
11897,1.33058,-6.99047,0.09337,-3.34167,-43.39596,40.6799
11925,1.81181,-5.85083,0.01676,-16.15905,5.12695,22.00316
11954,1.99257,-5.24989,-0.54708,-30.56333,37.10935,1.80054
11982,0.47824,-5.50846,-0.56383,-44.2352,58.22749,-22.73558
12010,-0.92476,-6.42544,0.38307,-49.36214,52.97847,-38.11643
12038,-4.08152,-10.53987,4.22577,-46.24936,30.82273,-46.78341
12065,-5.38516,-10.00716,4.52145,-67.97785,118.53019,-54.2297
12092,-8.18039,-9.22905,5.76284,-61.32502,167.66345,-15.89965
12118,-14.60403,-12.66832,3.57574,-30.31919,78.18597,39.21506
12145,-9.40263,-10.18314,2.7665,-16.34215,-9.82665,-24.6887
12172,-5.02483,-9.76296,-1.25097,-49.17904,-77.94183,-42.38889
12198,-0.09278,-13.60086,1.98838,-27.38951,-148.55945,-34.02707
12226,-1.38684,-16.58284,4.24372,-12.2528,-98.08342,5.09643
12253,2.38403,-8.06786,0.76974,-1.63269,-8.23974,3.02124
12281,2.9311,-5.65929,-0.72903,-0.7782,8.17871,-36.22434
12308,1.75315,-4.51247,-3.34829,-15.67076,-76.90424,-59.967
12335,-0.42557,-7.84879,-1.61728,-7.36999,-111.57218,-73.82197
12363,-1.47303,-10.12089,-1.33477,7.94982,-129.39444,-62.71357
12391,-1.87406,-11.15279,-0.96486,-1.14441,-111.38908,-53.07003
12417,-2.14221,-9.98083,-1.58975,-46.06625,-63.29341,-43.42648
12443,-2.08475,-9.46607,-0.46567,-67.18439,-3.17383,-43.9758
12471,-2.07039,-9.33679,0.75896,-56.01497,62.80513,-41.65646
12499,-3.2615,-9.44213,0.00359,-38.55893,93.62786,-29.44944
12526,-3.31417,-9.42537,-0.82361,-47.34799,121.03262,-25.84837
12552,-3.47818,-9.3332,-1.72143,-63.7054,114.80704,-13.82445
12580,-3.16454,-9.38228,-2.06859,-77.25519,69.76313,-5.46264
12607,-2.38881,-9.55945,-1.91297,-91.65948,13.18358,-0.27466
12635,-1.37367,-10.9409,0.17717,-102.58476,7.62939,-0.27466
12661,-0.60992,-10.6105,2.56898,-73.59308,51.08639,-16.93724
12689,-0.18854,-9.69712,6.23809,22.65928,41.25974,-36.71262
12716,-2.83892,-10.2801,-0.88825,47.80575,-19.59227,-41.29025
12743,-2.81259,-10.79725,-2.07817,14.11437,-29.54099,-35.61399
12770,-3.0137,-11.29884,-2.12725,10.26916,-28.80857,-16.99828
12796,-3.71281,-13.03224,4.0869,42.92294,91.55267,17.12035
12824,-2.49655,-11.25933,5.40132,107.98637,145.08046,29.32737
12852,-3.97378,-12.93886,5.52223,169.02148,195.25133,77.11787
12879,-2.58634,-12.95323,2.74495,206.61911,149.23085,115.87516
12905,-1.25636,-12.16793,-2.72101,175.18604,6.34765,134.00259
12931,-0.01496,-12.2637,-7.32865,101.94389,-132.32413,114.83755
12958,0.8242,-13.34229,-2.05662,76.49225,-70.86176,75.1037
12985,-0.77871,-12.32475,-0.08739,36.27011,84.47259,74.55439
13013,-5.22714,-8.99322,1.03669,28.21348,99.30413,110.50407
13039,-3.57873,-7.98406,-0.8655,25.4669,-6.65283,110.87028
13064,-0.47106,-7.66085,-2.01831,23.57481,-101.01311,79.55927
13091,0.28551,-9.04829,-0.18076,13.80919,-100.46379,67.96259
13119,0.5357,-8.36594,-0.29928,-2.73132,-65.67377,60.08907
13146,1.1151,-7.19039,-0.39624,-23.05601,-24.41405,37.07883
13173,1.5676,-5.08229,-0.98402,-44.47934,6.46972,12.23754
13199,1.64302,-5.02483,-0.83199,-55.40462,29.90721,-13.76342
13226,1.50775,-5.63655,-0.23703,-60.04329,40.52731,-35.73606
13252,-3.45663,-9.55346,4.39456,-50.58285,25.93992,-46.17306
13280,-6.38833,-11.25454,5.01466,-55.83187,9.64355,-51.42208
13307,-7.27418,-11.35031,5.67426,-43.01449,87.95159,-45.1965
13334,-9.13328,-8.91301,3.19267,-48.62972,116.33292,-8.75854
13361,-11.30003,-10.08378,5.39414,-4.74548,31.86033,5.76782
13388,-3.67929,-9.34277,-1.71904,-33.00474,-37.29245,-52.45968
13414,-2.00455,-11.41974,-3.17591,-49.91146,-104.91936,-71.92988
13441,-2.25594,-15.34623,2.66235,-18.11217,-66.16206,-27.80149
13469,-2.81977,-12.17631,-1.22823,-31.84507,-50.53707,20.66039
13496,0.81942,-7.94456,-1.1995,-28.48814,-67.44379,-3.69262
13523,3.02208,-5.13736,1.6927,-8.7738,-44.98288,-64.6667
13551,-0.5381,-6.4817,-4.02226,-27.2064,-123.90127,-78.64374
13577,-1.39402,-8.34319,-2.25654,-23.66636,-174.49937,-78.76581
13604,-2.34931,-9.89703,-2.29245,-19.63805,-192.01645,-58.50216
13631,-2.41156,-10.58896,-1.38145,-31.23472,-162.65857,-31.21946
13658,-2.13623,-9.66958,-0.51715,-43.93002,-91.00335,-17.85277
13685,-1.81062,-9.39425,0.71228,-37.03305,21.42332,-16.02172
13711,-2.49775,-9.25179,0.32561,-33.67612,112.67081,-7.2937
13739,-2.4379,-8.98364,-0.76375,-41.12241,136.23036,-8.5144
13765,-2.13982,-8.98724,-1.53229,-53.81771,131.59169,-8.63647
13793,-2.59232,-9.08181,-1.68791,-61.01985,102.66106,-3.38745
13819,-2.1051,-9.26736,-2.03148,-70.41926,45.34909,-8.02612
13846,-1.96265,-10.51114,-2.29963,-90.74395,-43.27389,-12.05443
13873,-1.65499,-11.24975,-1.53349,-109.66483,-94.60442,-11.19994
13900,-1.05046,-11.12885,1.96325,-111.49589,-1.34277,-14.73998
13926,-2.1063,-10.32679,5.21936,22.35411,45.04391,-38.05539
13953,-2.74555,-11.15758,0.08499,65.87214,-8.05663,-37.32297
13981,-2.64619,-11.32876,-2.01113,6.30188,10.37597,-20.23314
14008,-2.61267,-10.89661,0.55186,13.93126,7.08007,-19.92796
14036,-4.11144,-12.27447,4.48913,70.69392,101.62346,-2.59399
14062,-5.19602,-12.04583,4.06655,118.48441,138.12247,27.00804
14087,-5.3684,-12.37982,5.75446,175.43018,178.03941,68.75605
14110,-3.73914,-11.92971,1.29526,209.42673,75.50043,108.55095
14133,-2.3122,-11.62205,-3.84988,167.98389,-70.19038,133.33119
14155,-1.05884,-11.9345,-7.06768,113.96781,-154.05263,124.90836
14180,-0.25798,-13.29321,-6.06332,89.43169,-160.33923,89.38592
14207,-1.47184,-12.83951,-1.22104,62.21004,17.63915,60.02803
14233,-4.47297,-10.36031,-0.72425,24.12413,120.60538,102.08122
14261,-5.89632,-8.58142,1.85551,20.70616,70.86176,138.21402
14288,-0.54767,-7.68359,-3.33393,12.40539,-128.1127,92.31561
14316,-0.59316,-9.22306,-1.50835,8.80431,-174.31628,71.92988
14344,0.26516,-8.90344,-0.81403,-7.24792,-111.69425,69.67158
14370,1.70048,-7.15328,-0.72065,-19.0277,-68.90864,52.33761
14395,2.37445,-5.6976,-0.52433,-33.67612,-30.70066,31.03635
14422,2.32178,-5.24749,-0.55665,-46.61557,7.26318,12.11547
14448,2.3553,-5.45579,0.03232,-53.57357,53.7109,-18.82933
14474,0.89962,-6.26024,0.69911,-57.84603,74.89008,-35.00364
14500,-1.81899,-8.68437,2.54264,-45.88314,64.81929,-49.83517
14527,-6.06751,-11.54305,5.54976,-62.97298,85.8764,-55.20626
14555,-7.86555,-9.34996,4.89854,-76.64484,137.20692,-29.32737
14583,-14.29159,-11.49875,1.35512,-74.08137,113.22013,22.55247
14610,-14.73212,-11.13723,5.41329,4.34875,86.42572,40.4968
14636,-4.99371,-5.76464,-0.35314,-34.40854,8.66699,-67.7795
14664,-2.54803,-12.58931,-1.38624,-63.58332,-85.20501,-85.05242
14690,-4.0049,-17.92479,9.08001,-9.93346,-75.13422,-30.2429
14717,-4.7052,-16.28237,1.0331,-22.87291,-83.12982,38.05539
14745,4.0899,-6.49607,4.09169,11.00158,-21.05711,-2.10571
14772,3.89477,-4.77464,-1.17795,11.30675,-43.21286,-65.94843
14799,0.59556,-6.24946,-5.15711,2.21252,-110.53458,-66.74189
14827,-1.07919,-8.45692,-3.27407,0.13733,-139.03798,-63.446
14854,-1.34853,-9.79288,-2.18591,1.23596,-120.91055,-60.82149
14882,-2.31579,-10.05864,-1.99198,-18.78355,-76.23286,-46.78341
14909,-1.75196,-9.70071,-1.22583,-34.71372,-22.15574,-44.76925
14936,-2.01053,-9.59416,-0.16999,-36.48374,70.9228,-39.39816
14963,-2.78865,-9.28172,-0.85593,-45.33383,115.53947,-39.4592
14989,-3.21481,-9.15124,-1.60412,-70.72443,138.42763,-34.45432
15016,-3.74872,-9.1273,-1.88304,-82.01593,136.23036,-32.62327
