timestamp,ax,ay,az,wx,wy,wz
25,4.32094,3.54641,8.90703,-4.15802,45.1965,-25.91703
52,3.02448,3.36086,8.69754,-19.90508,38.84885,-14.5645
78,0.04729,2.75154,9.58698,-22.8958,17.85277,4.78363
101,1.53528,2.65577,9.81563,-13.49639,15.2893,-8.52203
126,2.73717,2.82935,9.31165,-12.70293,41.65646,-23.96391
153,2.65457,2.90117,9.06864,-12.58086,78.94891,-25.61186
183,-0.23403,2.77548,8.35397,-25.88652,74.37128,-12.3062
207,-0.1646,2.39719,8.20673,-55.36648,48.24826,-17.49419
234,4.48614,2.08715,9.0842,-75.5691,41.41232,-70.59473
259,2.92512,1.72682,11.28447,-61.53102,41.41232,-108.92478
284,-2.07877,1.42156,11.88063,-41.57254,82.91619,-74.31787
309,-2.07517,1.15341,10.88584,-27.35136,114.16618,-63.63673
334,-1.67295,0.35374,13.77324,17.20427,188.01866,-83.47314
358,-3.37163,-1.10911,10.19511,58.09779,223.17488,-90.37011
382,-2.7671,-1.20368,4.86681,39.78726,140.89955,-107.88719
415,2.02968,1.82259,7.69676,71.46449,144.25648,-172.46233
442,-1.37846,0.77153,9.26496,113.76181,84.01483,-210.91446
465,-5.4917,-1.65379,6.38115,85.62463,-6.74438,-211.82999
489,-5.08469,-0.11672,6.31171,56.99916,-20.72142,-236.42714
515,-4.57113,-1.40959,10.08976,62.30922,30.18186,-252.96764
543,-3.23397,-1.02173,12.32595,140.73933,86.2121,-274.26889
572,-3.91392,-2.57317,11.94647,180.71735,105.07195,-286.90317
597,-8.38988,-0.38846,4.91829,138.54207,66.07051,-290.38217
622,-9.46967,-0.10594,2.98617,92.33849,67.65742,-255.77525
646,-10.39742,0.63027,4.35086,80.13147,87.31072,-199.07364
671,-10.37228,0.54887,1.90519,36.67447,99.82292,-159.95013
698,-9.70071,-0.80984,1.63584,-3.4256,107.39127,-145.91206
722,-7.56268,2.25474,2.9323,-34.12626,142.05922,-180.76311
746,-7.94456,2.2715,1.76991,-80.63502,121.79556,-196.5712
772,-15.95915,-2.03328,0.76076,-128.91379,119.35416,-155.12836
799,-17.11675,-4.72915,1.74597,-124.76339,34.39328,-68.51954
826,-15.06851,-5.72753,5.21397,-61.46999,-2.28882,-5.53131
853,-6.5248,-3.82534,2.96941,-51.64333,26.27562,-34.33988
879,-5.22594,-3.58831,2.44747,-51.46023,102.44743,-63.45362
906,-2.59591,-2.44508,3.28903,-37.66629,223.23592,-116.85934
933,-4.35086,-3.82893,1.80583,-22.95683,141.63197,-160.13324
960,-9.66958,-5.23073,-1.67055,-81.55054,56.79317,-119.30076
987,-11.48199,-6.78696,-3.70203,-109.1384,18.09691,-81.8252
1012,-8.93576,-5.42706,-0.83378,-86.43335,-9.12475,-90.85839
1039,-9.39425,-6.84323,-1.61668,-72.0901,-20.53831,-77.67481
1067,-7.05152,-6.91864,1.08876,-15.75469,45.68478,-90.24804
1094,-10.78049,-6.97371,1.32818,-7.45391,27.19114,-42.0303
1122,-9.58219,-7.22031,0.10714,-37.8494,16.57103,-41.72513
1151,-6.57508,-8.60536,3.05919,13.78631,39.88644,-38.06302
1177,-4.23115,-9.64085,1.70886,68.10755,70.83125,-53.38283
1204,-4.13179,-9.88506,0.69133,105.88828,37.75022,-58.50978
1231,-4.45621,-10.56621,-3.85526,45.09732,-8.39233,-68.15333
1259,-5.92266,-8.47128,-2.90836,-12.94707,-35.06467,-64.73537
1286,-5.22235,-7.89668,1.49578,27.09196,-29.63255,-50.57522
1313,-5.41987,-6.41945,0.83019,34.17204,-73.883,-28.35844
1340,-3.5117,-8.08462,-0.05806,25.62712,-81.32928,-35.98783
1367,1.48022,-10.02153,4.83689,69.32825,-6.07299,-68.70264
1394,-4.94103,-7.27777,-1.82977,-22.10234,-46.60031,-46.05862
1422,-6.7307,-6.87315,3.27706,-20.02715,-140.65541,-7.91168
1451,0.18256,-4.08271,0.18016,-39.00906,-129.73013,-58.14357
1478,0.5788,-3.90075,-0.43634,-107.24632,8.14819,-107.70409
1504,2.33016,-3.37403,1.70766,-105.04906,52.21553,-164.10052
1532,3.94983,-3.61943,5.1194,-55.97683,120.08659,-225.68495
1559,2.69647,-4.12222,5.03082,44.36489,245.69685,-227.45497
1587,-2.4343,-7.53874,3.53444,49.12563,328.52148,-121.92527
1613,1.04567,-4.31016,-1.55324,89.77502,249.35895,-100.50194
1639,2.23678,-12.48995,-2.63302,125.7247,107.81853,-105.1406
1665,8.57304,-30.5985,-1.73879,203.72757,-66.55878,-188.20938
1692,-0.33579,-30.81038,9.1237,176.68901,185.02794,-38.06302
1719,0.10475,-14.34905,1.91237,39.36002,128.57045,9.84954
1746,-1.14982,-5.30256,-0.83498,-59.82204,-41.7175,-28.54154
1774,-1.95427,-6.37755,0.00898,-26.67997,-149.3224,-2.17438
1802,-1.73999,-7.83084,0.0844,-4.15802,-189.78868,28.28214
1829,-0.76555,-10.84513,3.87083,16.65495,-108.1237,33.47013
1855,-0.76076,-13.57572,-2.55641,-41.63358,-132.53775,30.2963
1880,-1.18573,-15.84303,-0.24241,-102.72972,-98.96843,29.13664
1907,1.35452,-15.07449,-7.03117,-162.6662,-196.92979,27.67179
1934,3.03645,-11.60769,-4.99849,-172.43181,-154.26624,30.41837
1961,2.14461,-10.15082,1.55324,-143.68428,98.0529,60.38661
1988,3.62303,-11.62924,6.10342,-102.05833,73.82197,48.91201
2015,3.56556,-14.34665,4.48973,-72.82252,-77.23993,44.33438
2042,2.47261,-14.93802,1.98419,-64.46071,-107.81853,64.17079
2068,1.04806,-8.72268,1.11989,-46.0281,-47.69894,70.15223
2093,2.52528,-8.06068,0.62189,-50.30056,15.83861,54.03896
2118,2.04285,-7.93139,1.72203,-34.43143,46.05099,45.73819
2146,-0.07721,-7.70155,2.01173,-18.98955,59.967,56.3583
2173,0.20291,-7.46692,0.93314,-16.48711,45.44064,64.17079
2202,0.89483,-6.71394,0.27593,-14.96123,52.58175,55.3207
2227,2.86406,-5.49409,1.66936,14.09148,76.38544,34.99601
2254,2.90836,-5.48212,1.3234,36.91861,56.61007,26.8173
2280,3.08194,-4.96498,0.68414,54.74086,7.59887,10.09368
2307,2.70724,-6.50445,-1.29945,56.51088,-16.6931,-19.93559
2333,1.86209,-8.98484,-4.07314,17.26531,-14.2517,-40.26028
2359,-0.73921,-13.14596,-8.69394,-56.282,28.41184,-10.16998
2387,-10.22025,-19.89043,-6.43502,-53.29128,81.39032,59.8373
2414,-4.97575,-13.01428,-4.44065,-16.24297,11.81029,25.23039
2441,-1.47902,-7.51839,-0.06644,18.24187,38.48264,10.27679
2469,5.37798,-12.25532,2.45944,34.2941,-6.86645,-22.31596
2497,4.33171,-16.21413,-5.34925,-33.27176,-27.25218,1.79291
2523,4.99969,-6.39431,1.2396,4.14276,25.78733,-11.20757
2547,4.37959,-4.5017,5.54796,70.18275,-14.61791,-36.84232
2571,3.22439,-4.80935,5.54437,80.13147,-18.15795,-47.46243
2594,3.57394,-6.29855,3.61105,57.36537,-16.20482,-70.41163
2618,2.73957,-9.84675,0.62189,41.80142,-22.18626,-65.95606
2644,-2.05004,-13.39496,-0.14545,25.50505,7.90405,-53.26077
2670,-1.27791,-10.34594,0.89364,17.38738,78.64374,-57.22805
2698,-1.70766,-8.37671,1.31502,32.27995,76.93476,-26.0391
2726,0.91877,-8.52156,1.34255,48.75942,0.15259,-9.8648
2752,2.15538,-9.16081,2.2715,73.96693,-17.7307,-19.93559
2780,2.04644,-9.61212,2.53486,85.99084,-4.66919,-27.50395
2807,1.21805,-8.97766,-0.24481,71.58656,3.93676,-33.18021
2834,1.00377,-8.44375,-0.92715,58.76918,-1.98364,-35.56058
2861,0.75836,-9.08061,0.97504,48.27114,6.92748,-42.94583
2888,0.31903,-9.46248,1.37367,39.11588,16.44896,-42.70169
2915,0.13587,-9.71148,1.40121,39.66519,13.70238,-30.92191
2943,0.64823,-10.57579,0.0401,39.72623,-8.02612,-12.48931
2968,1.95786,-10.60332,-0.61471,27.03092,-40.37473,-5.40924
2993,3.66014,-10.87746,-1.92314,2.43377,-55.02316,-18.53179
3021,1.93392,-10.82239,-0.39564,-41.69461,-16.57103,-39.772
3048,-1.15341,-11.24377,1.37607,-41.57254,-4.18091,-46.3638
3075,-4.39396,-13.95041,2.40797,-38.39872,11.50512,-0.28229
3103,-4.8728,-15.47073,-1.67415,-66.41383,-12.29858,38.65811
3131,0.27354,-13.32912,-3.62063,-121.8337,-3.63159,41.22159
3157,3.94864,-11.24736,-2.15658,-128.42551,3.38745,37.43741
3185,4.02884,-9.71866,1.12468,-109.07737,-7.96508,72.71571
3212,4.64176,-11.64719,2.09193,-94.97826,-9.24682,88.34069
3238,5.02483,-13.45721,1.53768,-86.25024,-58.13594,83.15271
3263,4.20721,-10.11131,1.24439,-72.70045,-66.19258,54.71035
3288,1.50535,-8.74542,2.79463,-49.69021,3.26538,50.55996
3314,0.69252,-8.08342,1.47902,-42.42703,8.33129,52.75723
3342,0.96786,-7.99244,1.19052,-35.89627,15.4724,59.28798
3371,1.0313,-7.82126,1.21326,-19.90508,19.92796,64.23182
3396,0.90441,-7.60219,0.57521,-7.0877,19.68382,64.96424
3423,1.59394,-6.3596,0.77033,12.32146,37.44504,55.80898
3450,2.50254,-5.70359,0.77512,32.34098,37.68918,36.0336
3477,2.99096,-5.48571,0.97145,57.48745,28.41184,20.0424
3504,3.03286,-5.51684,0.58838,69.93861,18.09691,6.55365
3530,3.44346,-5.82689,0.39923,75.3097,19.92796,-19.50835
3557,0.83617,-10.98759,-9.18356,20.07292,8.33129,-47.64553
3584,-7.68359,-18.13309,-14.62917,-62.26344,6.74438,7.22503
3610,-13.39496,-21.67531,-10.36151,-56.70925,4.18091,81.99304
3636,-1.32579,-7.46213,-1.95068,-17.89092,15.22826,9.72747
3661,2.85568,-9.34996,1.61668,5.05828,26.64182,-7.54547
3685,6.94139,-14.27124,2.77428,-10.26153,-36.28537,-10.35308
3709,5.01885,-14.04738,0.31544,-12.825,-11.81029,20.28654
3731,4.88597,-7.86675,-3.65176,0.96893,-32.6843,-17.98247
3754,1.65619,-4.61183,8.0104,75.00452,20.84349,-43.18997
3778,2.35889,-6.7319,5.06793,86.35706,23.95628,-52.22316
3800,4.22158,-10.55903,1.78907,55.65639,-9.49096,-72.05958
3823,3.17292,-14.18983,1.11031,40.27554,11.81029,-63.27052
3846,-0.39804,-12.6348,1.50296,36.79654,49.34689,-52.1011
3869,-0.76435,-9.58578,0.86969,41.55728,53.49728,-50.88039
3891,-0.43395,-8.41502,0.85054,45.28042,60.08907,-39.52786
3915,0.66978,-8.86393,1.4036,53.27602,21.39281,-24.8184
3941,1.21685,-9.96287,1.57598,66.94789,-38.54367,-7.36236
3969,1.71006,-10.02033,1.88723,84.03772,-56.85421,-3.27301
3994,2.06081,-8.64606,0.6614,84.03772,-59.78389,-19.56938
4020,1.89681,-8.44016,-0.17298,70.12171,-40.6799,-32.50882
4048,1.50775,-8.58142,-0.68773,51.87221,-31.21946,-50.88039
4073,0.14545,-9.26975,0.01975,37.28482,-18.28002,-53.44387
4097,-1.15221,-9.54628,2.16975,37.77311,-2.59399,-43.31204
4123,-0.62549,-9.56783,1.89202,55.22915,-6.68334,-33.36332
4151,-0.50218,-10.25137,0.8685,62.18715,-24.6887,-11.69585
4178,1.61309,-10.28968,-1.93152,33.56168,-46.84444,-1.68609
4204,2.95744,-10.47164,-1.63943,-11.72637,-55.08419,-13.89312
4231,2.96223,-10.79965,0.4543,-25.09306,-22.85765,-28.35844
4258,0.04848,-10.97322,2.09074,-17.15849,-9.85717,-42.45755
4285,-2.78625,-12.70663,2.40318,-18.74541,4.05884,-19.26421
4310,-4.27305,-14.50587,3.62422,-18.19609,3.02124,14.85442
4333,-0.97504,-13.47277,-2.40318,-36.99491,-30.91428,34.08048
4357,2.20566,-12.22659,-5.73351,-100.65453,-4.73022,27.18351
4380,3.06757,-11.25933,-4.2132,-126.77756,2.7771,31.21183
4404,2.58035,-10.02632,-2.37325,-134.71213,-17.42552,51.04824
4430,1.80463,-9.74261,-0.3322,-124.27512,-26.82493,77.41541
4455,4.20601,-13.39735,2.19129,-102.24144,-54.16866,91.14831
4479,6.12018,-12.91492,1.62147,-82.40503,-112.02995,74.36365
4503,5.34446,-10.53509,1.90519,-72.70045,-60.69942,57.579
4530,2.78146,-9.19314,2.85928,-52.31472,13.58031,48.05752
4555,-0.01137,-8.07744,0.63746,-39.43631,21.57591,46.53164
4578,-0.54289,-8.07026,0.45669,-35.28592,18.82933,55.68691
4604,0.00778,-8.05709,0.89004,-24.42167,21.45384,59.04384
4630,0.56563,-7.61895,0.79906,-11.05499,31.15842,61.72939
4655,1.02651,-7.20116,0.99898,-0.00763,42.87716,59.41005
4682,1.99377,-6.67204,0.8661,21.11052,44.89132,46.2875
4709,2.90237,-6.12856,0.88885,46.19595,34.33225,33.95841
4736,3.20883,-5.14095,1.02053,68.10755,39.09299,15.1596
4762,3.07834,-5.33727,0.35255,79.70422,38.66574,-9.31548
4785,3.02208,-6.5655,-0.63267,71.70863,24.62767,-38.42923
4810,2.55401,-8.99921,-5.19003,-0.67902,7.96508,-51.2466
4838,-10.35432,-21.59869,-12.90175,-58.05202,-37.0178,37.74259
4865,-10.85232,-20.23639,-8.01399,-28.63309,-15.71654,42.25919
4891,0.82301,-7.94217,-0.58598,10.18523,2.04468,6.98089
4918,5.90111,-11.13603,3.80379,-4.09698,-0.03052,-20.17973
4945,4.7471,-12.27447,6.90907,9.39178,-46.60031,16.31926
4972,4.07553,-7.21553,-2.59352,-9.1629,-61.92012,-10.47515
4999,1.72921,-6.44459,7.1856,91.54504,28.83909,-34.40091
5026,1.70048,-6.88034,6.56789,85.68567,-6.01196,-42.15237
5052,4.31016,-12.21103,0.0844,38.56656,-48.00411,-66.44434
5078,2.15059,-12.25771,1.19171,16.59392,20.47728,-65.89503
5105,0.83378,-9.26975,1.59633,27.03092,49.40792,-69.43507
5133,-2.07158,-8.52874,2.20087,47.47769,59.47871,-46.24173
5159,-1.76752,-9.36552,1.76034,59.98989,8.14819,-21.94975
5185,-0.10714,-10.27532,1.02771,67.06996,-43.24337,-16.57866
5211,0.53091,-9.85872,1.18932,65.84925,-26.45872,-12.36724
5238,1.04686,-8.97646,-0.07003,48.21011,-12.11547,-15.96831
5264,1.59394,-8.26897,-0.59675,39.78726,-27.9846,-27.01567
5292,1.68133,-8.9202,1.13904,36.49137,-15.2893,-39.40579
5319,0.993,-9.06983,1.89202,31.97477,1.7395,-46.79104
5346,0.40642,-9.25179,2.37924,47.59975,-12.42064,-38.79544
5371,0.84455,-9.96646,2.00095,74.51624,-18.40208,-25.30668
5398,1.157,-10.0323,0.22805,70.42689,-39.33713,-13.58794
5425,1.96983,-10.40819,-1.70886,33.74479,-70.77021,-15.6021
5451,1.88244,-11.13842,-1.78667,-27.53446,-40.80197,-26.16117
5477,-0.0018,-10.80563,1.08278,-47.79812,-9.49096,-40.50443
5503,-1.97821,-11.11927,3.0137,-17.40264,-12.23754,-31.89848
5530,-5.29777,-14.43285,3.29023,2.73895,-2.7771,3.62396
5557,-4.86801,-14.97753,0.1646,-25.03202,-26.947,36.52188
5585,-2.28706,-13.80078,-3.89237,-87.47094,-23.34593,38.47501
5611,2.07877,-11.29046,-3.39558,-125.92307,9.18578,45.37197
5639,3.04123,-9.96048,-2.77428,-138.61836,-7.84301,62.88906
5667,4.59507,-12.46362,0.49021,-127.14377,-30.91428,91.33141
5693,6.85759,-13.93366,0.90321,-111.57981,-94.32977,91.69762
5720,8.86274,-12.74374,1.38804,-87.28783,-136.19984,61.85146
5747,2.58394,-8.77176,3.31178,-60.73757,-29.87669,34.56876
5774,-0.3298,-8.50959,1.37487,-38.76492,-7.90405,35.48429
5801,-2.19608,-8.62691,-0.55605,-33.76005,-13.09203,62.15664
5829,1.10193,-7.46213,0.95469,-21.8582,10.16235,53.97793
5857,1.01574,-6.88872,0.29748,-18.50127,28.41184,46.77578
5884,0.79906,-6.51642,0.16939,-7.51495,33.59983,42.62539
5910,1.35811,-6.08786,0.60035,19.03533,24.56663,35.72843
5937,1.89441,-5.69042,0.86131,54.00844,-1.31225,28.16007
5964,1.80583,-5.50367,0.97863,72.92933,15.22826,12.41302
5991,1.64302,-6.58346,0.27593,74.51624,39.4592,-13.03863
6018,1.73759,-8.15645,-1.22044,67.06996,35.61399,-34.70609
6045,-3.06877,-15.6072,-15.88972,-35.16385,2.89917,-36.1099
6071,-10.7338,-20.17055,-12.7162,-58.90651,-59.05147,46.1044
6098,-8.24384,-17.05569,-7.82246,-54.57302,1.00708,38.84122
6126,3.00053,-11.13004,0.09996,7.56072,4.60815,-10.53619
6152,5.14693,-15.70058,2.71921,-26.74101,15.35033,-3.82232
6179,2.94307,-13.59488,1.73639,-18.19609,-81.20721,26.02385
6206,4.52205,-2.17693,3.09989,26.42057,-56.54903,-12.48931
6232,3.51648,-3.16573,7.18799,93.31506,12.48168,-51.30764
6258,3.4267,-7.42622,2.75872,67.86341,-51.84933,-70.7168
6285,3.38839,-16.57805,1.3234,40.82486,-34.33225,-76.57617
6312,-0.44831,-12.2649,1.66337,28.31266,28.28977,-59.79152
6339,-0.2077,-8.14807,0.48902,30.50993,28.04563,-66.56641
6366,-1.12946,-8.45931,2.45944,44.79214,39.4592,-49.47659
6393,-0.38128,-9.5403,2.22242,55.41225,-1.19018,-36.72025
6419,0.68295,-10.50157,1.34614,71.46449,-47.82101,-28.54154
6445,0.54648,-9.56424,0.96307,80.92493,-45.92892,-21.3394
6470,0.72844,-8.72507,-0.18615,64.07924,-37.38401,-28.54154
6494,0.51176,-8.50241,-0.91159,49.79702,-44.64719,-33.60746
6519,0.29149,-8.89985,-0.31903,47.23354,-34.39328,-37.87991
6546,-0.21009,-9.79288,0.98342,33.50065,-7.53784,-45.20413
6574,-0.60035,-9.48044,1.69569,23.18571,23.40697,-41.23685
6602,-0.69492,-9.00998,2.1063,52.48257,8.6975,-26.28324
6628,0.42078,-10.20708,0.8266,66.39857,1.06811,-11.02447
6656,1.24199,-10.54347,-0.83737,41.31314,-19.74486,-7.6065
6683,2.41036,-10.59614,-2.55401,-13.31328,-42.51096,-13.46587
6710,1.94349,-10.59973,0.01975,-36.6287,1.67847,-16.8228
6738,1.36649,-10.82598,1.4024,-29.67069,1.7395,-30.31156
6765,-2.37684,-13.22976,2.69408,-40.2908,31.03635,-21.88872
6791,-3.93188,-14.85423,2.82576,-37.30008,24.32249,20.59172
6819,-3.5105,-14.58727,0.0832,-60.49342,-38.78782,42.01505
6847,2.67492,-11.29046,-7.66923,-163.7038,0.45776,33.77531
6873,2.44508,-10.55783,-1.82857,-165.35175,50.20138,47.08096
6897,1.67415,-10.30405,1.28509,-138.00801,-7.59887,69.2367
6919,4.08152,-13.56614,2.81379,-111.39671,-62.89669,78.08679
6943,5.21038,-13.0478,3.60387,-83.5647,-93.65837,66.61219
6970,3.4698,-10.6955,4.08391,-51.03298,-15.53344,55.62587
6997,-0.03651,-9.64085,3.17292,-34.85868,31.4636,65.08631
7023,-1.34853,-8.64845,0.40881,-36.75077,34.39328,69.66395
7051,0.09876,-7.95653,1.75555,-24.97099,61.85909,58.49453
7078,-0.0832,-7.82724,1.80104,-19.90508,81.20721,65.45253
7106,1.22523,-7.41903,0.92835,-12.21465,84.44207,63.07216
7132,2.09672,-6.87675,1.03968,5.79071,77.97235,51.71963
7158,2.80541,-6.51402,1.33656,40.0314,71.68574,39.75674
7185,3.6338,-6.63373,0.43874,77.38489,54.90108,27.42765
7213,3.73795,-6.18841,-0.09637,90.62951,29.14427,8.62884
7240,4.31615,-6.38953,-0.73322,93.98644,5.88989,-30.79984
7268,3.52367,-8.7107,-4.06595,56.57192,-7.04956,-63.27052
7294,-0.60873,-13.44284,-12.45524,-89.85131,22.12523,-7.91168
7320,-11.37066,-20.39321,-6.31052,-58.66237,71.4416,72.28846
7347,-5.02244,-11.94767,-2.33495,16.47185,-13.031,39.81778
7372,-2.03687,-6.69598,2.3122,20.13396,-15.2893,34.69083
7398,1.82618,-8.92139,2.7647,-3.85284,-54.35176,2.03705
7424,9.45171,-11.18511,-5.56592,-49.20193,55.32833,-20.60698
7450,1.09954,-9.02674,-1.88364,5.85174,14.12963,-22.13286
7476,1.39043,-6.85759,3.44585,43.63247,7.65991,-51.79592
7502,3.17531,-10.38425,3.74872,46.68423,10.10131,-55.94631
7527,3.95343,-10.86788,2.67612,40.33658,42.32785,-54.66457
7552,3.04483,-9.09617,1.51733,24.10124,76.26337,-60.64602
7577,-1.38564,-10.35552,2.42114,36.79654,78.76581,-58.26564
7600,-1.49817,-11.02231,-0.15622,33.2565,37.13986,-46.05862
7624,-0.68175,-10.42136,0.54528,31.91373,49.65207,-24.75737
7649,0.25798,-9.79647,0.83737,35.14859,34.75949,-18.898
7676,0.54049,-9.61691,0.84695,56.26674,-14.19066,-5.77545
7703,0.88526,-9.40502,0.50218,66.64271,-37.68918,0.69427
7730,1.74238,-8.82563,0.43634,60.72231,-30.97532,-9.49859
7757,2.04764,-8.93456,0.63626,49.85806,-3.75366,-28.60258
7785,1.30065,-9.46847,0.53331,46.44009,11.62719,-42.15237
7811,0.18735,-9.9509,0.21608,42.04556,8.33129,-47.34036
7839,-1.22164,-9.81802,0.00419,25.81022,14.55687,-42.94583
7866,-1.13425,-9.49481,0.51415,23.18571,20.84349,-32.38676
7894,-1.10792,-9.77972,0.92835,32.95133,15.16723,-8.03375
7921,1.18693,-10.73261,-0.7428,41.67935,-31.03635,11.8637
7948,3.50691,-10.28968,-2.55282,10.00213,-30.05979,-4.79889
7975,3.45304,-9.46368,-1.53169,-53.96267,55.57247,-30.00639
8003,0.85054,-10.54107,-0.6183,-54.93923,30.79221,-30.92191
8029,-1.00377,-11.33475,-0.35973,-61.40895,9.91821,-14.68657
8053,-1.9818,-11.61367,-1.2815,-96.19897,-1.00708,1.67084
8077,-0.33579,-13.94802,-0.4543,-120.30782,-11.07787,13.38958
8101,1.41198,-15.78078,-3.57754,-171.028,-36.28537,19.67619
8125,3.71041,-14.06055,-8.9609,-232.79555,-4.42505,24.92521
8150,2.5995,-12.01111,-1.21206,-197.63933,63.32393,37.0712
8178,0.05567,-11.59931,6.76661,-134.46799,-10.34545,29.62492
8206,-2.11228,-12.60846,9.59656,-56.64821,-23.04075,50.19375
8233,-4.45501,-13.66072,8.5455,-23.99443,-11.13891,66.06288
8260,-4.44543,-9.59177,-0.64584,-38.52079,40.6799,79.06335
8288,-0.79069,-8.67359,0.99898,-13.98467,98.0529,74.30261
8316,0.85772,-8.45692,3.32016,25.01677,170.74573,70.09119
8342,0.86491,-8.82563,2.02729,29.16715,188.50694,73.69227
8370,0.98102,-8.77535,2.26791,26.90885,185.8214,78.94128
8396,1.88005,-8.14807,2.17334,39.8483,167.02258,67.03944
8423,2.60549,-8.57783,2.16256,73.35658,158.96594,45.67715
8450,4.70042,-9.04948,1.55922,57.91469,175.9337,10.58196
8475,3.45064,-9.55945,-1.44311,28.25163,165.13049,-16.09038
8501,2.36966,-9.92696,-2.77548,3.04413,167.32774,-34.70609
8527,0.14784,-10.94809,-3.6757,-23.44511,216.64412,-20.36284
8555,-3.65295,-12.91732,-2.56958,-14.9002,231.41463,23.09416
8581,-5.05715,-11.93689,-0.68175,22.88054,173.67542,69.96912
8606,-3.39677,-9.9521,3.51888,33.98893,96.09978,61.42421
8631,1.64422,-5.75147,6.3165,15.49529,49.83517,45.92129
8658,4.5436,-5.91308,5.55874,20.43913,109.40543,16.19719
8684,8.0918,-7.32805,2.75632,9.75799,203.52158,-30.79984
8712,10.84873,-11.42214,-2.58993,-64.64381,235.80914,-75.29444
8739,3.32375,-16.74924,-1.00736,-32.90555,142.79164,-41.11478
8766,1.43592,-9.44094,3.52726,-5.37872,138.76332,-30.5557
8791,1.22882,-5.4498,5.00448,-3.12042,218.53622,-46.24173
8819,1.18453,-7.83562,3.635,15.98357,243.86578,-48.25588
8845,0.70449,-11.37425,1.14263,25.87126,180.63341,-30.98295
8871,-0.80146,-10.97083,1.78667,31.18131,162.68909,-20.54594
8898,-0.90202,-9.14765,2.09074,53.88638,146.39272,5.51605
8925,1.16059,-8.00441,0.14545,41.74039,78.76581,4.84466
8952,5.25228,-8.11694,0.23523,27.64128,82.73309,-14.13726
8979,6.17285,-9.23623,0.2891,9.26971,111.23649,-38.24612
9007,3.04722,-10.46206,0.43515,6.52313,111.05338,-33.48539
9033,0.55246,-10.57579,0.03172,12.87078,72.11298,-24.94047
9061,0.52852,-9.88506,0.47704,-2.388,57.34248,-21.46147
9087,0.60633,-9.58698,1.30544,-18.74541,63.38496,-25.55082
9114,0.11791,-9.70669,3.08433,-18.98955,60.57735,-17.31108
9139,1.10552,-9.46488,3.37403,-9.95635,58.99043,-13.89312
9167,2.39121,-9.56543,3.12383,-0.61798,68.1457,-23.65874
9195,2.84252,-9.31165,0.76914,0.23651,67.41328,-36.23197
9221,1.92434,-9.54867,0.64943,-10.3836,76.93476,-43.67825
9248,0.55845,-11.04745,0.83139,-29.97587,75.83612,-38.42923
9275,0.35614,-12.45404,1.26833,-50.11745,59.72285,-25.97807
9303,0.52014,-12.53903,-0.47585,-76.17945,44.21994,-17.37212
9330,0.09038,-11.68071,-2.73478,-114.26536,25.36009,1.12152
9358,0.88047,-11.78606,-2.72999,-130.56174,42.38889,18.27239
9384,2.06201,-11.66036,-2.21883,-136.90938,60.02803,27.24455
9409,2.22242,-10.09455,-0.64943,-141.1208,51.36105,25.65763
9435,1.54246,-11.37186,0.94152,-135.32246,33.41673,20.22551
9462,-0.55007,-12.73296,3.35847,-111.82395,61.85909,40.67227
9490,-2.90477,-10.8607,5.58986,-71.11353,75.34785,60.81386
9517,-2.69647,-9.94731,4.07074,-32.78349,35.91916,89.7445
9544,-0.86491,-9.40502,2.67851,-16.79228,12.60375,95.66491
9570,1.22763,-10.30285,0.85054,-20.33232,70.95332,103.66051
9596,2.40797,-10.38186,0.1658,-40.04666,140.77748,99.32702
9621,3.10468,-9.58938,-0.36332,-44.56326,123.93179,91.33141
9648,2.73358,-8.00202,-0.21488,-26.80204,76.44647,91.81969
9674,3.42311,-7.82964,-0.13348,10.49041,29.3884,88.7069
9701,3.75112,-7.6405,-0.02095,35.88102,9.79614,73.32606
9729,3.94145,-6.47332,0.70928,39.8483,9.91821,53.0624
9756,3.99293,-6.09743,0.5764,45.7687,23.468,17.29583
9783,3.78104,-6.45896,-0.64224,43.99868,35.06467,-17.25005
9810,-1.2803,-10.03111,-7.11856,10.24627,64.54463,-30.12846
9834,-6.2758,-13.81514,-12.72219,-36.56766,33.78294,17.72307
9859,-9.4158,-15.42405,-7.74704,16.10564,-32.6843,49.27822
9886,-7.103,-11.33954,2.67372,72.07484,-103.91228,57.579
9912,-1.72682,-14.17786,2.6438,-6.47735,-35.85813,35.24015
9938,3.98455,-14.99668,-0.09158,-66.719,32.13498,2.95257
9965,5.00089,-11.38383,1.2408,-1.59454,216.21687,-18.40971
9991,8.38629,-3.01131,1.75555,61.02748,-17.42552,-50.81936
10015,7.34362,-3.28065,1.78428,62.18715,-96.03874,-87.25732
10043,8.29292,-5.92864,3.08194,61.45473,25.17698,-116.12693
10070,-1.39522,-14.97154,2.62584,54.00844,107.02507,-77.97998
10096,-5.27981,-14.80514,-0.8685,45.89077,33.78294,-39.03958
10124,-4.86681,-11.89619,1.22763,69.45033,19.86693,-39.5889
10151,-1.39881,-9.10695,0.72604,73.72279,4.05884,-6.50787
10178,0.57281,-9.11772,0.33459,71.52552,-11.68822,10.21575
10206,3.42311,-8.30968,0.54049,80.80286,-52.27657,-16.02935
10232,2.97539,-8.44854,0.79428,79.76526,-33.78294,-29.39603
10258,2.84132,-8.46889,-0.33698,61.51576,-13.45824,-48.68313
10285,-0.23882,-9.79647,0.08918,37.52896,-11.68822,-55.45803
10309,-1.30903,-9.90781,1.20009,32.15787,-9.7351,-45.08206
10335,-0.95708,-9.50558,1.68731,38.68863,-8.63647,-35.56058
10362,-0.23044,-9.52354,1.96624,43.20523,7.17163,-23.84184
10389,0.71646,-11.3539,0.37769,58.64711,-22.67455,-4.1275
10417,1.95068,-11.58853,-4.38797,10.24627,-73.08955,-8.03375
10443,1.90878,-11.13603,0.80505,-66.10866,12.29858,-38.5513
10471,-1.04567,-11.92013,2.89758,-35.10282,-14.19066,-32.814
10498,-3.60627,-14.01506,3.04483,-29.8538,-8.39233,11.13128
10526,-3.10468,-15.17026,-2.94906,-65.01002,-30.12083,41.40469
10554,0.91279,-12.66712,-6.82527,-146.43085,-14.86205,39.57364
10580,2.28706,-10.90738,-5.22116,-158.82098,8.57543,48.05752
10607,1.80224,-11.24377,1.93751,-139.16768,1.19018,76.19471
10634,3.41473,-14.40531,2.85209,-114.63157,-60.63839,86.0824
10661,5.8628,-14.77881,3.2603,-82.16089,-124.90836,67.28358
10686,3.32614,-9.64325,2.48817,-52.25368,-40.31369,62.88906
10714,1.74717,-8.42101,1.35811,-40.53494,5.82885,48.11856
10740,1.18333,-7.61416,-0.10714,-45.96707,17.85277,45.92129
10765,0.30466,-7.64289,1.17615,-31.99003,24.62767,51.90273
10791,0.51296,-7.23947,1.44789,-19.84404,33.47776,54.34414
10818,0.27713,-6.92702,0.79188,-11.36016,29.75462,61.36318
10846,1.3629,-6.20038,1.11869,2.3117,28.90013,57.64003
10871,2.31938,-5.85801,1.44789,35.39273,23.65111,42.68643
10898,2.88561,-5.83287,1.61549,63.8351,34.51535,27.36662
10925,3.37882,-6.10342,0.47944,82.08459,43.42648,2.22015
10952,3.47937,-6.38234,-0.05088,87.39465,46.17306,-23.7808
10979,2.91195,-7.50044,-3.43029,50.16323,15.35033,-49.11037
11006,-6.92224,-18.70769,-15.58326,-45.47879,-39.76437,0.81634
11034,-11.75852,-21.84889,-9.72225,-28.02275,-30.91428,70.21326
11061,-1.5257,-8.20074,-3.86484,11.83318,-22.85765,24.92521
11087,3.15017,-11.38503,-0.62668,-3.36456,24.56663,-9.37652
11114,2.94786,-15.43362,3.82174,-28.20585,9.49096,40.30606
11142,3.07595,-6.39192,-0.78111,-26.49687,-63.446,19.67619
11169,4.51487,-2.9323,2.99215,62.85853,34.21018,-24.6353
11195,5.47135,-3.25073,6.56909,91.42297,-4.18091,-60.82912
11223,6.31171,-11.37904,1.55444,54.13051,-50.81173,-84.20557
11249,3.13341,-15.43961,3.71401,45.46353,44.58615,-63.88087
11276,-0.84575,-12.91013,1.17017,28.06852,42.02267,-55.76321
11303,-1.61908,-8.20673,1.23242,42.41177,16.87621,-49.65969
11330,-2.15777,-8.60057,2.62943,60.35609,1.80054,-21.09526
11358,-0.00778,-9.60853,1.94349,72.99036,-53.07003,-15.11382
11385,0.83498,-10.27292,2.27509,85.5636,-52.45968,-10.0479
11412,1.01813,-9.1656,0.97624,72.25794,-37.56711,-18.65386
11438,1.12348,-8.44375,-0.10475,58.15883,-36.1633,-25.856
11466,1.85012,-8.4246,0.06045,55.41225,-40.25266,-41.84719
11494,0.94032,-9.15603,0.60633,35.75895,-21.75902,-56.61769
11520,-1.29826,-9.84915,2.17214,32.82926,-4.36401,-47.70657
11545,-1.14024,-9.81922,2.25474,54.6188,-13.45824,-34.52298
11570,-0.76076,-10.10054,1.47662,67.37513,-20.05003,-21.94975
11596,-0.16101,-10.32559,0.54648,60.78334,-26.7639,-12.1231
11623,1.92314,-10.71944,-3.4267,9.26971,-50.44552,-21.09526
11650,1.42156,-11.08096,-1.75794,-36.99491,-7.41577,-27.62602
11677,0.15143,-11.07737,0.67816,-31.19657,-3.69262,-32.814
11704,-2.71802,-11.86387,2.20087,-13.92363,-13.70238,-9.13238
11731,-3.00532,-13.93605,2.71443,-26.49687,18.64623,16.13616
11757,-0.70569,-13.96837,-3.70802,-56.95339,-27.80149,38.23087
11782,1.58077,-12.20624,-7.70634,-129.58516,-19.13451,38.65811
11806,2.88681,-10.79845,-7.6369,-171.88251,-16.6931,45.00577
11829,1.53768,-10.33876,-2.2727,-155.34198,-26.09251,71.37293
11852,1.14622,-11.95365,3.24953,-144.17256,-6.80541,91.69762
11875,6.63852,-15.46355,4.69922,-106.88011,-87.24969,82.05408
11899,7.03357,-12.39658,2.87963,-69.89284,-116.42447,60.99696
11926,3.70323,-9.14286,1.91596,-49.99539,-13.39721,43.90714
11952,1.14982,-8.39587,0.88645,-55.18337,24.74974,34.01944
11979,-2.12306,-8.61853,-0.71527,-64.46071,-9.61303,60.63076
12005,0.11193,-7.99005,1.8561,-41.3284,19.62279,56.29726
12031,0.24122,-7.81408,2.00335,-29.06034,32.25706,60.75283
12057,0.59436,-6.82886,0.69611,-20.88164,26.947,65.02528
12084,1.50416,-6.16926,1.22164,7.80486,17.91381,58.12831
12110,2.34692,-5.58867,1.55683,40.94693,13.82445,42.8085
12137,2.42353,-4.45741,1.00257,60.05092,50.75069,17.84514
12164,2.07757,-3.98694,0.04489,77.14075,67.65742,-20.42387
12191,2.03926,-4.86681,-1.54606,66.4596,61.55391,-52.95559
12218,-2.26791,-14.63157,-19.10992,-54.69509,40.55783,-61.56154
12245,-10.06822,-24.01923,-12.61684,-51.15505,1.98364,32.5546
12273,-7.89189,-21.83572,-7.86076,3.77655,-60.57735,53.85586
12300,5.41269,-10.54466,0.08799,-42.12186,-3.26538,4.41742
12327,4.52564,-13.33391,6.40988,-31.25761,10.46752,13.99993
12354,4.65253,-8.47966,0.01377,-22.77373,-69.85469,-31.53226
12381,2.09672,-3.92829,8.19116,67.55824,19.989,-58.81496
12407,1.12827,-7.60099,8.25461,108.26865,23.28489,-64.24708
12435,0.2496,-16.19498,-0.20051,84.03772,-32.6843,-46.97415
12461,-1.00975,-12.66593,-0.84934,45.52456,18.09691,-37.26957
12487,-0.37769,-8.49044,-1.45627,31.54752,42.26682,-40.13821
12514,1.88843,-7.3101,-0.27593,31.48649,65.52119,-49.90383
12541,1.37367,-9.1237,1.47303,48.027,48.24826,-38.36819
12567,1.16418,-9.93654,1.37607,80.74182,-25.48216,-17.67729
12592,1.38924,-9.2099,0.97264,90.56847,-61.30976,-26.71049
12615,0.44472,-9.01597,0.9104,74.82142,-30.30393,-38.85648
12638,-0.17657,-8.88668,0.21488,62.49232,-8.39233,-42.45755
12662,-0.43275,-8.67719,-0.27354,58.46401,-16.20482,-41.41995
12684,-0.44592,-9.31524,0.12989,63.59095,-34.39328,-36.96439
12707,-0.25438,-9.69113,0.68414,57.85366,-24.74974,-36.293
12729,-0.12869,-9.13568,0.96905,46.86733,-4.85229,-30.18949
12753,0.39684,-8.95491,0.79787,52.84878,-6.56127,-28.72465
12775,0.58598,-9.73782,0.13228,61.02748,-27.06907,-18.59282
12798,1.22164,-10.31961,-0.67816,53.27602,-40.00851,-8.76617
12821,2.65816,-10.68353,-2.16855,20.01189,-61.00459,-14.80864
12845,3.56916,-10.84992,-2.6845,-29.60966,-13.64135,-31.22709
12868,2.28467,-10.43932,0.06764,-42.73221,16.38793,-46.18069
12890,-2.4367,-11.1073,1.9806,-17.28057,-24.93284,-39.10062
12913,-3.39677,-11.52868,2.44268,-5.98907,-36.28537,-20.85112
12936,-3.56078,-14.39693,2.6438,-20.39336,2.28882,8.62884
12959,-3.41593,-15.65748,-0.60992,-54.45095,-49.59103,28.70939
12981,-0.59077,-14.39334,-8.88788,-128.79172,-65.70429,29.44181
13004,2.04644,-12.51988,-6.3608,-151.92403,20.59935,32.24943
13027,2.11109,-11.08695,0.16939,-136.29903,12.48168,45.49405
13049,0.54528,-12.35109,3.83132,-117.01193,-12.35961,81.5658
13072,1.98659,-14.21856,3.52965,-97.78588,-30.05979,103.05016
13095,3.48177,-14.09167,2.25713,-80.57397,-65.39912,103.78258
13118,4.6238,-12.12603,2.39241,-56.40407,-49.04171,73.38709
13141,2.33734,-10.2825,2.82695,-34.98075,9.61303,64.59804
13164,0.47106,-8.91541,1.17256,-33.69901,32.19602,63.3163
13187,0.04369,-8.01519,0.85533,-38.887,39.94748,64.35389
13210,-0.15024,-7.59501,2.26073,-29.91483,65.8874,65.9408
13233,-0.65422,-7.47769,1.33177,-22.83476,77.85028,78.39198
13256,0.03771,-7.68838,0.67935,-17.76885,76.08027,79.18543
13280,1.17735,-7.64888,1.12827,-1.28937,88.22625,67.89393
13302,2.19728,-7.05631,2.09553,20.19499,105.62126,53.0624
13326,3.02208,-6.42065,1.47662,33.37858,87.18865,39.3295
13349,3.78703,-5.038,1.0325,53.94741,36.95676,27.91593
13372,4.94223,-4.0468,1.44789,76.16419,-1.61743,4.78363
13397,4.90273,-4.79259,0.49261,93.37609,-27.43528,-34.46195
13420,3.82174,-6.83006,-3.04961,56.75502,-30.05979,-71.32716
13442,1.90758,-10.70867,-8.74662,-46.63845,-6.62231,-56.73977
13464,-7.1832,-19.96824,-16.7648,-75.69117,86.3952,39.26847
13487,-9.30447,-16.49784,-4.37361,-13.67949,-14.98412,82.35925
13510,-2.71562,-6.99286,-0.28192,6.70623,-18.64623,30.84562
13534,-0.41001,-4.99969,3.02448,8.72039,0.03052,13.45061
13557,3.91153,-9.52473,5.29059,41.31314,-39.39816,-13.03863
13580,1.64542,-14.95478,1.27431,-41.93875,-17.66966,21.38518
13603,1.83935,-14.11681,-9.28651,-40.77908,39.88644,15.28167
13626,4.65612,-5.02723,5.61979,66.4596,7.23266,-14.50347
13650,4.77224,-4.55198,6.03279,97.16027,-18.7683,-32.69193
13674,5.83527,-6.61817,3.33812,77.50696,-44.21994,-67.60402
13698,6.17285,-10.04427,0.2903,36.97965,-28.53391,-86.09766
13725,2.31459,-13.55058,0.87807,35.81998,54.16866,-71.20509
13751,-1.01933,-10.23701,0.84934,26.05436,79.37616,-74.74512
13778,-2.45585,-9.55945,1.13545,41.67935,49.8962,-49.96487
13805,-2.46184,-9.07582,1.51613,53.39809,-1.37329,-22.74321
13831,0.19213,-9.66479,1.30783,71.8307,-69.24433,1.4267
13858,1.62147,-9.36791,1.60352,75.06555,-52.09347,-9.74273
13885,2.48099,-8.78852,1.55922,70.67103,-28.77806,-28.2974
13911,1.88124,-8.30369,0.17059,68.41273,-26.7639,-40.8096
13938,0.9104,-8.83281,-0.48423,51.75014,-31.4636,-55.15285
13965,-0.62549,-9.68634,-0.00419,34.2941,-24.26146,-53.93215
13990,-1.94828,-9.90182,1.53289,39.78726,-11.62719,-37.3306
14017,-1.44191,-10.06463,1.21805,49.49184,-9.36889,-21.52251
14043,-0.82181,-10.50157,0.52732,40.70279,-16.99828,-5.71441
14069,1.87406,-10.62247,-2.61028,5.66864,-60.76046,-12.85552
14096,1.80702,-10.93252,-0.9499,-33.82108,-12.05443,-18.95903
14123,0.97983,-11.30961,1.3222,-23.38408,-14.19066,-24.08598
14150,-2.52888,-11.98597,1.17855,-14.59502,-35.30882,-10.47515
14176,-4.00969,-14.03301,0.88166,-39.49734,-10.10131,20.71379
14202,-3.57035,-14.52742,-1.83216,-90.5227,-32.74534,38.59708
14229,1.86329,-11.81718,-5.68683,-151.74092,-13.76342,42.25919
14255,2.21404,-10.43932,-2.37804,-164.61932,1.7395,55.44277
14282,1.80822,-10.69789,1.0756,-139.04562,-11.19994,84.06824
14308,3.90794,-15.34983,3.14778,-107.79564,-69.67158,105.36949
14335,6.77619,-14.77043,1.53289,-78.13257,-152.06898,84.73962
14363,6.62535,-11.88302,2.00574,-50.66677,-50.75069,59.04384
14390,0.30945,-8.26538,-0.70809,-45.78396,4.36401,38.78019
14416,-1.08876,-8.22229,-1.17136,-52.31472,13.88549,47.3251
14443,-0.43036,-7.90146,0.76674,-41.20633,35.9802,51.17031
14470,0.53211,-6.95456,0.54767,-33.02763,28.47288,54.03896
14496,0.51176,-6.94977,0.39684,-24.90995,23.468,55.13759
14523,0.93075,-6.8564,0.49979,-5.43975,32.13498,48.05752
14550,2.28586,-5.41269,1.53289,30.02165,15.71654,34.01944
14578,2.48578,-4.64415,1.2372,55.10707,25.17698,10.45989
14605,2.8473,-4.88477,-0.61711,69.63343,17.66966,-14.32036
14631,2.79343,-5.71077,-1.12108,71.8307,43.18234,-51.12453
14657,2.44867,-8.7526,-8.44854,-43.22049,29.75462,-65.04053
14685,-12.49354,-23.09507,-9.64205,-59.94411,-14.55687,25.04728
14712,-7.76739,-16.24406,-5.48571,-20.08818,-0.64087,28.52629
14738,-1.48979,-6.46734,-4.4179,13.78631,-30.85325,14.36614
14765,7.60698,-11.45925,2.92512,3.77655,6.37817,-19.32524
14791,6.42783,-17.66382,1.90758,-7.45391,6.92748,-19.26421
14814,-2.11228,-13.73254,-4.35685,-6.29425,-42.02267,-4.37164
14837,-1.05524,-6.71274,3.11186,61.3937,13.58031,-23.53666
14861,2.49655,-4.63458,3.7164,98.74718,52.09347,-36.41507
14884,6.28538,-9.6636,0.18375,73.84486,-6.68334,-71.14405
14908,5.88555,-14.07372,0.19692,52.84878,-17.18138,-75.66065
14931,1.38325,-13.28004,2.97061,53.09292,45.92892,-50.51418
14954,-0.11911,-9.40981,1.55563,54.8019,53.55831,-56.00734
14979,-0.48782,-8.53832,-0.00299,48.14907,50.9338,-58.38771
15005,-0.80744,-9.21708,0.65422,35.81998,42.20578,-36.04886
