timestamp,ax,ay,az,wx,wy,wz
26,2.27868,4.47895,8.55029,-4.40979,21.47673,1.93024
53,2.32776,4.62141,9.09976,-4.83703,35.14859,-3.07464
76,2.0632,4.6238,9.42657,-4.10461,36.12516,-3.44085
100,2.10151,4.61542,9.87309,2.54822,25.13884,-4.11224
123,1.91955,4.5436,9.71866,4.50134,20.5612,-2.40326
147,1.72921,4.35924,10.93372,10.48278,28.61784,-2.76947
170,1.53169,4.29699,10.54945,11.45934,34.59928,-2.8305
193,0.89962,4.26826,9.47086,7.67517,36.67447,-0.93841
220,0.69252,4.49811,9.4541,3.70788,32.34098,1.13678
247,-0.05447,3.8385,9.89105,-1.60217,32.0358,8.8272
274,-0.51894,3.06039,10.55903,-2.82287,31.66959,10.47515
299,-0.73562,2.88561,9.22905,-4.59289,9.75799,12.55034
322,-1.29826,2.6857,8.55748,-3.49426,-19.5999,23.41459
347,-1.93033,2.52528,7.57585,-18.02062,-26.80204,34.70609
372,-0.09158,2.56599,8.33721,-34.6832,6.52313,32.814
398,0.34656,2.31699,8.63529,-44.14364,45.09732,18.40971
421,0.47704,2.52888,8.00202,-54.70272,65.66615,-2.58636
442,-0.53091,2.2284,7.90625,-51.40682,78.60559,-1.79291
465,-1.88244,2.3936,7.42622,-64.46834,52.17739,3.33404
488,-1.17376,1.72083,8.61613,-55.86238,9.20867,6.5689
514,0.18615,2.35649,9.03153,-45.79159,12.13836,-4.84466
541,-0.81582,2.18172,7.81647,-36.45322,-51.5823,-7.53021
567,-0.19333,2.51571,7.03476,-48.29403,-104.01146,-19.55412
592,1.00377,1.80822,9.73423,-42.61776,-136.0549,-25.47453
617,1.83695,2.79224,10.8164,-19.7296,-136.0549,-39.14639
644,0.75597,2.09792,10.76613,-18.14269,-64.0945,-18.76067
668,0.91399,2.38163,10.05864,-23.0255,-20.27129,-13.99993
692,2.03208,2.65218,10.31123,-11.67297,-10.93291,-22.72795
718,4.19524,3.49015,10.1568,-21.9879,8.53729,-71.3119
743,0.38008,1.04806,10.39862,-11.30675,-45.23465,-63.74355
772,3.03046,0.88645,11.67113,-52.07821,13.84734,-68.44325
796,3.88519,0.82061,11.93689,-34.07285,-5.19561,-71.55604
820,3.75231,0.87927,12.69226,29.58677,-1.04523,-85.2279
846,4.2132,-0.31184,12.68747,117.41629,46.13491,-104.27086
872,0.2903,-0.59675,11.41136,142.07448,-51.15505,-65.14735
898,0.36811,0.97743,12.50551,154.4646,-69.95387,-26.6342
925,-0.4974,1.74358,8.77894,87.20391,-10.01739,35.74369
952,-0.246,2.08236,4.10426,-1.72424,34.66031,85.85351
979,5.24989,3.24235,3.17292,-72.28083,18.3029,59.18117
1007,5.98012,2.69886,3.59669,-112.564,10.36834,22.68217
1032,5.80175,-0.75238,7.44896,-134.17043,-13.13018,-35.24015
1060,2.22481,0.98462,11.16955,-83.8775,32.15787,-38.2919
1087,3.0987,-0.19812,10.06103,-12.7716,-11.17705,-54.58828
1113,1.50057,0.07602,5.7407,20.73668,-109.01633,-71.98328
1140,0.26276,-0.06524,3.90794,-3.12805,-164.80243,-66.61219
1166,-1.0337,-1.0337,4.47895,-33.76768,-175.72771,-32.79874
1193,-1.80224,-2.0656,3.30579,-84.36578,-201.17935,18.0435
1218,-1.64661,-3.36804,3.04722,-100.66216,-264.89999,68.21436
1244,-0.15024,-4.55437,5.6162,-68.49666,-328.37653,106.91063
1270,4.6262,-4.85484,11.00794,-13.13781,-339.668,132.05708
1296,4.31854,-5.14693,10.72782,59.86019,-330.20758,179.23724
1323,6.98927,-4.08391,9.68155,93.12432,-283.57675,189.06389
1350,14.6184,-1.12468,8.19835,83.60284,-166.02313,160.80463
1376,15.62995,-0.40522,6.53438,56.25911,-66.23073,112.52586
1403,18.65622,1.25636,6.08427,46.31039,-21.43095,44.34964
1429,19.78748,0.51415,6.07349,38.43686,38.50553,-11.80266
1456,18.32462,-0.40043,4.98652,27.45054,72.13587,-58.31142
1483,15.47313,-1.22404,3.23756,10.97106,38.32242,-67.22254
1511,11.60649,-2.65337,5.91547,14.57213,20.68327,-65.5746
1538,10.47403,-4.10785,7.00005,32.57749,4.99725,-53.67275
1564,9.39066,-4.54479,4.35924,28.79331,-58.05202,-30.2963
1590,6.51762,-5.96815,0.40043,9.56725,-92.90307,19.81352
1616,8.35157,-6.10462,3.79301,29.83091,-94.48997,25.97807
1643,10.39263,-5.15651,5.97533,50.1556,-73.79908,14.74761
1670,9.21588,-2.79583,3.35368,20.00426,0.48065,1.44195
1697,7.73387,-2.4762,5.31812,14.20592,24.28435,5.65338
1725,5.47255,-0.8254,0.66738,-26.62657,22.94157,15.66313
1753,5.87717,-0.89364,2.19369,-40.17636,10.61248,12.06206
1780,6.12257,-1.28868,4.20721,-25.16172,-26.43583,10.53619
1806,8.90703,-0.79787,2.80541,-32.60801,-29.36552,-2.22015
1833,9.15124,-0.79547,2.42353,-55.98446,-17.58574,-9.6054
1860,9.56543,-1.02173,3.03286,-76.85847,-6.66046,-20.77483
1888,9.22426,-1.39043,3.29143,-79.1778,-13.80156,-20.8969
1915,8.79929,-1.49219,3.08672,-73.74567,-9.59014,-19.12688
1943,10.20349,-0.48542,4.28023,-58.36483,-24.72685,-34.6298
1970,9.98681,-1.83935,3.68408,-57.81551,-12.88604,-37.62052
1994,8.83041,-1.98539,2.19369,-82.22955,1.76239,-23.46037
2016,7.91224,-2.36607,1.58915,-107.07085,6.27899,-0.5722
2070,8.33122,-4.76147,2.85568,-117.32474,-15.44951,39.89407
2095,8.91062,-4.92068,2.3122,-119.09476,-8.24737,56.55666
2119,8.0523,-5.03201,1.33537,-125.13724,5.91278,75.66065
2140,3.85646,-6.75584,-1.5676,-155.22755,7.6828,127.84566
2164,3.03525,-10.20588,0.93194,-163.46729,37.40689,217.56728
2185,5.63416,-10.86668,2.44149,-144.97365,-7.63702,266.82263
2208,8.45093,-9.25179,5.58627,-75.94293,-94.36791,279.88412
2254,15.82627,-2.78506,3.8002,-59.28035,-33.39384,187.04973
2277,10.75535,-3.98814,2.33854,-115.00542,61.5768,196.44914
2301,9.19074,-2.78146,0.40402,-115.79887,65.66615,127.41842
2322,7.10659,-3.16573,-1.75675,-113.29642,59.86782,73.21925
2344,5.2858,-6.28179,-4.26587,-141.98293,74.69935,38.5513
2366,4.02765,-8.99442,-2.7659,-138.9922,133.72029,-27.8549
2388,-0.51415,-11.84112,0.70809,-89.73687,193.59575,-18.8217
2409,4.65852,-10.21546,-0.68414,-91.26275,261.03952,-30.90665
2431,5.70119,-9.72106,-1.20847,-104.62944,316.82562,-30.90665
2454,5.53719,-7.56268,-3.15975,-103.40874,291.67917,-40.3671
2475,6.22073,-6.15489,-1.49219,-72.15876,237.78517,-49.94961
2497,5.07152,-7.21912,1.53289,-23.75792,148.85701,-27.24455
2520,7.09103,-8.51318,-2.54085,-54.76375,136.16171,-18.51653
2541,8.40544,-6.79774,-1.2408,-76.61432,129.75302,-32.18839
2564,7.91822,-6.75105,-1.45747,-101.63872,98.62511,-38.53605
2586,8.57543,-7.72788,-1.9387,-120.43753,56.26674,-31.51701
2607,8.15405,-7.82964,-3.53085,-184.64647,-14.35088,3.33404
2629,5.59585,-8.96569,-4.88956,-224.44136,-67.75661,49.41555
2651,5.01525,-8.75739,-4.13299,-168.22803,-68.18385,67.90919
2674,5.58388,-6.7295,-1.13186,-91.14068,37.77311,55.397
2696,4.16172,-6.22911,-4.39635,-35.84287,161.43024,48.07278
2718,2.22002,-8.90344,-2.16975,-21.43858,145.56111,69.67921
2744,3.91033,-8.80887,2.81379,-13.68712,184.50151,78.10205
2772,5.45818,-8.26299,2.04405,-42.37363,227.04298,74.07374
2796,4.75668,-5.78619,-0.18615,-83.45026,231.49855,53.93215
2822,2.396,-7.1832,4.00969,-82.16852,262.44336,57.10598
2846,0.71048,-7.43579,1.54246,-84.97614,194.08401,76.39307
2871,-0.20171,-9.33679,2.72879,-58.30379,124.504,122.96286
2898,-0.54887,-9.0447,4.76267,-16.4337,117.42393,154.33492
2925,1.42515,-4.99849,2.13503,1.14441,91.54504,162.81879
2952,2.42952,-4.98772,0.14904,-12.28332,97.70959,171.18059
2979,-2.48817,-21.24794,2.85928,0.7782,123.22225,264.6864
3006,0.9918,-18.53411,0.331,-53.54305,89.22571,248.02382
3031,3.40994,-11.92971,3.1777,11.15417,67.4972,141.33443
3056,2.48099,-16.6403,6.74147,68.95441,-29.24345,116.73727
3083,6.13454,-11.6855,-2.23678,94.28399,-105.96458,21.03423
3108,5.27862,-8.342,-7.36397,26.77916,38.32242,-34.26358
3133,2.33135,-8.56945,-4.11264,-4.47082,73.47865,-67.46668
3160,-2.42473,-9.20152,0.95708,-18.20372,57.0602,-40.73331
3185,-3.64577,-9.39784,2.54204,-6.79016,68.96204,4.00543
3212,-2.77548,-7.56149,2.8497,26.47398,103.38585,35.43851
3240,0.20889,-10.02752,-0.60035,52.90218,83.73254,39.95511
3267,1.8992,-11.41974,-1.78548,55.28255,-2.388,9.31548
3296,1.70886,-12.45524,-2.1063,47.59212,8.53729,4.43267
3322,-0.73442,-12.12005,-2.04405,54.36702,2.55585,-2.22015
3348,-2.31699,-12.90774,-4.54838,-32.36387,28.92301,7.17925
3376,2.29065,-12.472,-3.14179,-172.68359,66.76479,-22.1176
3405,2.91913,-10.53628,-1.17974,-201.49217,50.1022,-54.03896
3431,0.77273,-11.03069,0.71527,-186.96581,40.0314,-60.14247
3457,-3.95223,-14.30356,5.287,-139.78568,87.27258,-58.6166
3485,-5.28101,-16.75642,2.74914,-80.03229,124.38193,-42.93057
3510,-3.52367,-15.80353,-2.48698,-73.01325,49.91909,-34.01944
3538,0.56324,-9.4146,-3.04123,-82.71783,-20.51543,-39.87881
3564,1.13545,-8.21391,-0.21847,-75.63776,-23.81132,-50.92617
3590,0.80744,-7.71591,1.62267,-51.40682,8.29315,-62.52284
3618,-1.02292,-6.8145,0.56683,-33.4625,4.44793,-59.28798
3644,-1.51373,-6.12856,-1.09714,-32.11972,-48.46951,-49.46133
3673,-2.73238,-5.63056,-1.07919,-28.51866,-75.26392,-33.22599
3699,-4.08511,-4.54958,1.23601,-5.87463,-61.89723,-12.41302
3725,-4.57472,-4.66331,0.7428,17.50182,-52.55886,12.3062
3752,-4.31016,-5.17926,0.19573,46.31039,-52.9861,32.44779
3780,-2.23319,-6.605,-4.01567,59.3719,-95.46655,49.8428
3809,-0.26276,-8.28813,-8.40185,46.24936,-154.42647,52.71145
3837,5.71077,-16.72769,-16.23568,-67.64217,-69.8318,-7.77435
3863,2.49775,-18.48623,-10.7769,-58.12068,-7.94219,-47.93545
3889,-1.91476,-13.75768,0.17059,13.53454,124.99227,-30.23527
3916,0.11073,-1.30424,-11.26173,0.9613,125.7247,-20.40862
3942,-1.36769,-11.19349,-6.55353,17.9901,-35.16385,33.24125
3968,-3.29382,-18.95669,3.89118,22.07945,-148.99434,48.50003
3998,-3.53803,-11.12765,3.66492,-37.36875,41.98453,15.66313
4024,-2.2691,-5.82689,2.57197,16.34215,37.34586,1.13678
4052,-2.82576,-5.615,3.31417,104.29375,-39.13113,27.68705
4078,-3.16693,-10.96963,2.59711,141.46413,-67.69557,21.58354
4104,-1.72323,-11.40059,1.67654,109.6038,-38.33768,7.30133
4131,-1.27671,-9.44572,-2.18172,59.3719,-11.6043,13.3438
4156,-1.20249,-7.04434,-1.70048,70.6634,-18.92851,16.33452
4182,-1.06841,-8.21151,0.32741,83.90802,-10.3836,17.73833
4208,-0.6602,-9.02075,0.77033,80.49005,1.39618,21.52251
4234,0.00658,-9.48882,-1.71485,69.38166,-1.77765,28.2974
4259,0.83617,-9.38826,-1.95187,55.09945,-1.59454,25.30668
4284,1.21446,-9.57262,-1.50176,50.39974,12.68767,20.1187
4312,0.66619,-10.0754,-1.53408,60.77571,0.66376,18.10454
4338,0.17059,-10.10772,-1.29706,59.49397,-37.23905,14.74761
4364,-0.31304,-9.94492,-0.40282,49.36214,-41.99979,15.96831
4392,0.14425,-9.57022,0.41958,44.66244,-17.58574,14.07622
4418,0.11672,-10.16398,-0.46507,30.25815,-15.57158,9.49859
4445,-0.22565,-12.0554,-0.93434,5.84411,-40.65701,17.61626
4472,0.34656,-11.70346,-0.83019,-13.9923,-12.45879,9.74273
4498,0.14425,-11.91534,-0.82181,-28.15244,9.26971,-10.643
4524,0.10235,-12.97238,-1.27551,-48.53817,16.53289,-28.83146
4551,0.35733,-11.22222,-2.24516,-107.80327,-15.20537,-34.6298
4575,-0.01018,-10.24898,-1.01095,-165.17627,3.47137,-45.31094
4601,-2.41036,-11.83633,0.85174,-189.28514,24.16227,-42.38126
4627,-3.60028,-13.21899,4.14496,-143.81398,40.82486,-44.45645
4654,-6.39431,-13.32313,1.15221,-101.94389,90.75158,-33.34806
4681,-5.51444,-11.38503,-1.71844,-81.74127,97.34337,-21.44621
4708,-2.94427,-9.38108,-1.57,-68.9239,69.87758,-24.19279
4734,-0.19932,-7.47649,0.98701,-49.75887,40.94693,-34.99601
4758,0.19573,-7.52917,0.56922,-46.40194,35.63688,-46.1044
4786,0.06165,-7.87393,-0.72365,-44.20468,18.97429,-48.48477
4812,-1.072,-7.1856,-1.42515,-31.26524,-13.61846,-46.53164
4838,-2.48458,-6.03399,-0.32621,-3.06701,-20.88164,-34.26358
4866,-3.77147,-4.93864,0.22087,19.69908,-9.22393,-12.41302
4892,-4.06356,-4.37959,-0.21608,39.65756,0.23651,14.99175
4919,-3.39558,-5.18883,-1.21685,58.33431,-20.51543,48.07278
4946,-1.69928,-6.39791,-3.13221,51.86458,-67.20728,56.19045
4972,4.40234,-12.45284,-10.2382,-11.85607,-89.79028,15.84624
4999,5.69281,-17.73685,-17.22449,-79.60504,-87.71509,-25.5966
5024,3.54881,-17.65185,-7.94935,-34.6832,42.53384,-32.43253
5052,1.77949,-5.87717,-3.06278,19.94322,94.41368,-27.42765
5079,3.10348,-4.86921,-10.09455,16.15905,24.22331,1.93024
5106,0.4136,-12.23377,-4.75788,16.9525,-120.55198,20.3018
5134,-6.11659,-17.03774,8.45213,22.01842,-15.93779,-3.80707
5160,-7.00244,-11.44488,3.32136,1.63269,76.46936,-23.09416
5188,-6.95216,-6.32249,2.13024,60.47054,9.51385,30.98295
5213,-5.00807,-7.6405,4.78421,105.45341,28.80094,57.89943
5240,-3.14538,-9.42178,4.7471,116.62284,28.67887,46.60794
5267,-1.38445,-10.22863,1.54127,115.64628,-24.1165,40.07718
5294,0.96067,-7.78894,-2.31579,113.51005,-46.82156,23.96391
5321,1.16179,-6.65169,-4.59148,73.9593,30.93717,21.03423
5348,-0.12989,-9.68874,-0.00539,58.82259,49.18667,14.99175
5376,-0.70569,-10.40101,0.75956,53.69564,32.09684,16.6397
5403,-0.64224,-10.57698,1.10792,53.51254,32.58512,29.45707
5430,1.35213,-9.53192,-1.15939,52.47494,46.74527,36.17093
5454,1.96025,-9.84196,-2.25713,56.68636,17.26531,26.16117
5482,1.64901,-10.10652,-2.57676,49.78939,-12.39776,18.77592
5509,0.4543,-9.41699,-0.17897,36.48374,1.27411,13.95415
5536,-0.12629,-9.51875,-0.10235,32.33335,-12.09258,17.79936
5563,-0.10714,-9.80366,-0.15981,21.40807,-38.33768,22.5601
5590,0.94391,-11.47002,0.41599,4.37927,-39.37527,17.8604
5616,0.76914,-11.80282,1.11031,10.23864,25.26091,-1.48773
5643,-0.51655,-11.36468,0.11791,7.61413,81.59631,-10.09368
5672,-1.97462,-12.00393,-4.953,-52.20028,40.33658,-5.14984
5699,0.6614,-12.53903,-3.27587,-109.75639,-5.62286,-23.64348
5726,2.15658,-11.41735,0.39325,-143.20363,-36.56766,-43.11368
5754,-0.47704,-12.29602,1.58676,-174.0874,-20.33232,-47.69131
5780,-2.87723,-12.92091,3.15616,-166.2749,75.61488,-49.33926
5807,-6.63613,-13.89176,3.26749,-96.26763,149.46735,-51.96377
5834,-6.57149,-12.75451,-0.62429,-42.55673,126.88437,-32.06632
5861,-3.68887,-10.38305,-4.4167,-67.45905,52.29946,-31.27287
5888,-1.02532,-8.12891,0.27833,-69.04597,21.17155,-31.39493
5916,-0.25798,-7.20954,1.983,-48.17196,20.19499,-40.97745
5943,0.22805,-6.74746,-0.34536,-44.32675,15.43425,-44.33438
5971,-0.18136,-6.62296,-1.78188,-42.12949,-36.44559,-39.26847
5998,-0.744,-6.25904,-1.31502,-24.06309,-73.12769,-38.35294
6024,-3.60387,-5.23073,0.93913,-0.13733,-50.48367,-20.95793
6051,-4.15214,-4.83689,1.04327,31.35679,-20.45439,2.35748
6079,-4.24791,-5.22954,0.58359,71.02961,-0.19073,35.19437
6106,-2.35051,-6.82288,-3.98814,83.60284,-28.32792,59.91359
6132,0.47106,-8.7933,-7.34362,62.24055,-66.04762,55.5801
6159,4.14257,-13.06097,-11.34792,-45.48642,-52.74197,2.72369
6184,4.34368,-17.93077,-4.92427,-61.17244,-34.67557,-40.91641
6211,1.90638,-11.50833,1.17256,-4.04358,69.63343,-35.60636
6240,1.94589,-5.13377,-5.73351,-7.27844,101.79893,-3.50189
6267,-1.54965,-17.35617,-3.91272,-17.89855,-14.71709,28.96879
6293,-5.41389,-19.73002,2.59232,-32.18076,-56.70925,11.26861
6320,-6.75584,-13.81275,4.72795,-20.9503,11.65008,-11.8637
6348,-2.4774,-3.04123,3.54641,41.12241,16.71599,-5.39398
6374,-4.9973,-6.50205,4.75668,98.19023,24.40642,43.98343
6400,-5.85442,-10.58896,4.59507,115.82938,23.79606,49.8428
6427,-3.04842,-11.59572,0.46268,114.79178,-54.08474,31.47123
6453,-1.3617,-8.36833,-1.34973,104.41581,-89.302,29.02982
6478,-0.20171,-6.28777,-3.76668,67.18439,-20.21025,32.814
6505,0.45669,-9.52234,0.21249,51.3763,25.19987,25.91703
6533,0.57042,-9.83598,0.96666,65.71955,15.37322,12.48931
6559,-0.46986,-9.82999,0.5381,74.08137,3.53241,18.16558
6586,-1.41198,-9.37629,-1.07919,62.91195,19.40154,32.99711
6613,-1.34973,-9.15363,-1.90638,47.77523,44.548,48.50003
6639,-0.41719,-9.08659,-1.70527,50.27767,16.04461,54.60354
6667,1.67534,-9.71387,0.59675,58.76155,-61.40895,40.8096
6695,1.8573,-9.72106,1.62746,63.27815,-57.92995,26.16117
6722,2.77548,-10.66198,-0.39085,70.8465,14.94597,12.85552
6750,2.48339,-11.19948,-3.8804,27.02329,18.05876,-6.61468
6778,0.45191,-11.69747,-4.55078,-46.64608,-71.2356,-0.75531
6806,-2.84371,-11.6029,2.64619,-13.62609,9.88006,1.8692
6832,-3.51529,-11.92133,1.37607,-18.5089,75.49281,4.49371
6857,-2.50254,-12.94126,-2.70724,-75.51569,30.02165,4.43267
6883,3.45304,-11.74416,-3.12743,-149.24611,-49.14089,-19.06584
6911,3.76309,-11.52868,0.30945,-164.87109,-44.56326,-56.23623
6938,-3.46261,-12.85148,5.03321,-151.19923,17.44841,-63.19423
6966,-5.62578,-13.77684,4.93146,-121.35307,96.30578,-51.53652
6992,-6.25425,-13.74092,1.38325,-74.05085,94.90197,-48.11856
7019,-3.5931,-9.74979,-2.29424,-68.13044,47.78286,-36.64396
7047,-1.70527,-8.84598,-2.17573,-90.10308,16.65495,-41.52676
7074,-1.39402,-8.47727,0.35853,-79.48297,15.55632,-45.73819
7102,-1.25636,-7.40706,1.79505,-54.09237,7.8659,-49.09512
7130,-0.65541,-7.06708,-0.26516,-49.2706,-16.73125,-52.63515
7156,-1.00856,-7.34002,-1.67774,-45.91366,-53.47439,-41.52676
7183,-1.82259,-7.03835,0.22685,-17.53234,-71.2356,-31.27287
7209,-1.91357,-6.64451,1.03489,13.65661,-51.94851,-25.90178
7236,-2.1051,-6.00406,0.78949,41.18344,-28.57206,-15.28167
7263,-2.50852,-5.31333,-1.34135,73.59308,-28.38896,10.16998
7288,-2.44388,-5.7,-2.69886,83.05353,-37.30008,36.96439
7315,-1.47902,-6.80731,-3.58831,59.92122,-46.82156,43.92239
7343,2.16615,-13.60206,-13.74691,-41.82431,-102.24144,7.54547
7370,2.36248,-15.82508,-10.85711,-44.44882,-56.46511,-12.53509
7396,3.00412,-9.56543,-1.80104,-3.00598,93.62023,-20.65276
7423,4.86562,-7.44896,-8.00441,12.13073,59.86782,-20.65276
7450,5.02124,-9.29728,-9.91379,10.36071,-58.60134,-5.51605
7477,-1.80583,-19.0764,5.11581,18.72252,-112.4343,-11.92474
7505,-5.90829,-16.91683,8.37073,-11.36779,98.01476,-40.48917
7533,-5.69521,-9.81204,2.58873,-47.25643,92.82677,-33.53117
7560,-5.45459,-2.62943,0.43036,31.53989,-75.26392,30.61674
7584,-6.44699,-8.25102,5.44262,77.07209,-56.46511,79.38379
7611,-4.89554,-11.97999,5.11102,82.56525,-9.40704,58.26564
7636,-1.4874,-12.03266,3.97019,98.1292,-13.98467,21.46147
7662,-0.3322,-8.84358,1.33776,142.92897,-40.1077,18.34868
7689,0.7835,-6.13574,-4.80217,107.89482,25.0778,30.61674
7716,0.91758,-9.76894,-2.21045,55.16048,-0.55695,17.98247
7742,0.0844,-9.62649,0.23523,41.54965,-21.12578,7.05718
7768,-1.27431,-9.1273,1.84892,62.78987,-4.09698,13.95415
7793,-0.68175,-8.85196,0.89723,69.93098,5.79071,17.00591
7819,-0.61591,-9.14046,-0.22446,70.96857,16.8991,28.41947
7845,-0.60035,-9.581,-1.58197,62.60677,-0.25177,31.22709
7873,-0.57521,-10.04308,-1.88843,48.44662,-19.78301,27.0767
7900,0.39804,-10.31961,-0.37769,29.76987,27.3361,16.51763
7928,1.00018,-10.27532,-0.55007,9.56725,33.68375,6.50787
7955,0.69971,-10.77451,0.3717,-7.58361,1.21307,14.62554
7982,1.20249,-11.03547,1.16657,-13.13781,-16.18193,14.01519
8007,1.33537,-10.80803,2.16615,3.0365,2.43377,4.79889
8032,0.50099,-11.37306,1.39043,20.2484,43.26626,-16.07512
8058,-0.71287,-12.04822,-1.76752,7.06481,41.98453,-38.1088
8086,-2.13264,-12.81197,-4.30298,-53.17684,-0.80109,-33.53117
8112,-2.38642,-13.25729,-3.74752,-117.99612,6.15692,-30.2963
8140,-2.70605,-10.49558,1.99138,-152.41994,70.36585,-41.64883
8167,-4.35086,-10.08976,2.20087,-164.56592,144.58455,-47.3251
8194,-8.19954,-11.97041,1.17615,-109.69535,154.28912,-41.03848
8222,-7.68,-11.85429,0.89244,-54.33651,144.76765,-14.54924
8249,-4.82851,-10.14363,0.23523,-56.89998,129.93613,-2.40326
8275,-0.47944,-8.1768,-1.49099,-77.10261,92.03332,-11.92474
8301,-0.26755,-8.11694,0.34656,-60.25691,61.08852,-22.42277
8328,0.10834,-7.98526,0.65302,-32.05869,45.40249,-30.23527
8355,-0.14664,-7.53276,-0.2065,-9.90295,44.79214,-36.82706
8382,-1.21685,-7.53156,-0.79428,2.79236,49.43081,-38.47501
8409,-2.5205,-7.3903,-1.48141,14.57213,22.20915,-25.04728
8436,-5.33488,-6.24468,-0.78829,33.43198,4.50897,22.86528
8462,-4.07912,-6.16686,-0.30227,39.23032,13.17595,60.70705
8489,-1.96384,-6.63493,-0.69133,31.723,2.06756,76.20997
8516,1.62506,-8.85915,-2.34931,15.42662,-3.4256,58.87599
8542,2.1458,-10.22743,-3.66014,7.7362,28.31266,36.04886
8565,1.58915,-10.77451,-4.17968,17.50182,66.76479,25.30668
8588,0.67457,-10.58058,-5.75027,43.99105,37.40689,15.41899
8613,2.3122,-10.35672,-3.41234,53.26839,16.41082,-1.12152
8635,3.14059,-12.58452,-4.0456,25.43638,54.25259,-10.643
8658,5.61141,-14.60164,-7.93977,-35.29355,100.33409,-26.6342
8683,4.25629,-14.63516,-8.61374,-21.01134,27.03092,-25.53556
8710,-1.72083,-9.87908,1.30185,25.74156,-71.90699,-40.42813
8736,-4.72196,-11.35869,5.47614,65.53645,-37.23905,-57.39589
8763,-6.67324,-11.52748,6.46614,88.11944,73.0514,-86.69274
8791,-9.56065,-10.96963,3.47099,64.86507,35.69791,-39.63467
8818,-9.22785,-6.99885,-1.35691,13.16833,69.38929,22.19389
8845,-5.44142,-7.08384,2.40557,6.21032,121.08603,54.42043
8873,-1.81301,-10.11012,2.50972,19.69908,67.68031,48.8052
8901,-0.40642,-10.39742,3.16932,44.4183,20.86638,23.47563
8927,0.4974,-9.79887,3.74274,67.18439,47.23354,13.40484
8954,2.29784,-9.64923,0.76674,57.41878,152.58014,-0.26703
8980,2.24516,-10.76254,0.42437,35.26303,210.74661,-27.18351
9006,0.68773,-10.85471,1.74358,37.58237,226.31056,-43.47989
9032,-2.59472,-10.35313,3.02926,53.6346,210.44144,-34.32462
9059,-2.38522,-9.994,2.53965,46.92074,186.08842,-27.30558
9086,-1.9004,-10.06103,2.59711,26.41294,186.57671,-24.31486
9113,-0.52972,-10.09096,4.19524,8.52966,241.20312,-33.77531
9139,-0.42796,-9.91259,4.96138,4.50134,296.01266,-39.3295
9167,-1.04447,-10.158,5.19721,7.18688,310.66107,-25.16935
9195,-1.29347,-10.04068,4.93984,4.31823,281.4863,1.93024
9221,-0.50099,-9.08779,5.38755,14.6942,234.24513,29.45707
9249,3.21721,-7.3915,5.69042,34.16441,191.52055,38.36819
9274,6.05553,-7.97449,5.24989,50.46078,234.30617,24.57426
9299,8.4629,-9.63606,3.41712,51.80355,295.15814,-1.97601
9323,7.95174,-10.83436,-0.05327,38.55893,229.66748,-6.3095
9348,3.29023,-7.65965,-3.40994,25.86363,129.50887,-11.92474
9374,0.81463,-9.2506,-2.20686,29.03745,65.66615,-11.61956
9400,-0.53929,-11.54305,-1.10193,29.34263,67.61928,-5.14984
9427,-0.06165,-11.83394,-1.12108,17.74596,120.59776,-17.601
9454,-0.37888,-12.31518,-1.99377,-3.7384,123.46641,-27.8549
9482,-0.89244,-12.48397,-2.15897,-41.33603,149.52838,-39.02432
9508,-2.0249,-11.34672,-2.83773,-83.57233,184.25737,-45.67715
9534,-2.15897,-9.80126,-2.40797,-141.98293,194.14505,-41.40469
9562,-1.67893,-9.30447,-1.57838,-184.95164,166.98444,-33.47013
9588,-2.34332,-12.98196,1.02173,-162.49072,70.36585,-17.41789
9614,-2.16615,-13.14357,1.96504,-103.10356,84.526,-14.42717
9641,-2.47979,-12.58572,-0.41958,-96.02348,138.23689,-8.01849
9668,-3.80618,-9.18595,-2.40917,-86.25787,76.83558,-1.97601
9695,-3.04243,-8.20792,-0.97504,-73.13532,45.89077,-2.76947
9723,-1.75555,-7.69077,0.57401,-50.49129,79.15491,-7.89642
9750,0.51056,-6.4841,0.41001,-15.88439,97.77062,-18.33342
9774,0.99659,-5.99448,-1.05165,8.59069,75.67591,-24.86418
9800,0.23643,-5.76464,-2.42952,19.94322,37.46793,-18.27239
9827,-2.41156,-5.23672,-1.96863,32.39439,19.46257,4.55474
9853,-2.2727,-5.27263,-1.38804,53.75667,29.5944,33.72953
9881,-1.38325,-5.54557,-1.67893,64.98713,23.06364,48.56106
9907,1.32459,-7.90386,-4.90991,70.48029,-8.73565,51.00246
9934,3.65774,-10.14363,-8.03674,50.94906,-4.21905,24.45219
9961,6.75943,-13.19385,-13.94922,-45.42538,10.61248,-35.8505
9988,1.33417,-15.96394,-4.49571,-25.71104,-5.56182,-47.26406
10015,-0.38966,-12.3032,-3.86245,-13.07677,6.27899,-29.62492
10041,0.72844,-7.15926,-7.53395,-31.3873,20.50017,9.55962
10067,-2.13024,-13.61642,-4.048,-16.00646,-5.56182,37.39164
10094,-5.04997,-15.3175,1.04447,4.07409,-60.55445,5.59234
10120,-6.84323,-13.04421,6.00286,5.11169,62.55336,-7.164
10147,-5.41987,-3.57754,-1.08158,16.28111,80.31458,24.08598
10174,-2.65218,-4.32692,2.58753,64.43782,39.36002,49.72073
10201,-2.40079,-8.21151,3.86364,92.63604,-11.54327,60.03566
10228,-0.83139,-13.04062,3.04961,100.93681,-36.44559,43.98343
10255,2.79942,-11.12645,0.17059,85.92217,80.98596,6.01959
10282,0.21249,-8.77415,-4.26347,64.55989,51.93325,-7.22503
10309,-1.57598,-9.47086,-1.75315,52.53597,-12.88604,-5.45501
10335,-2.31459,-9.50797,0.75477,48.9349,-8.91876,-0.26703
10362,-2.53127,-9.23743,1.64542,51.92562,7.62176,4.3106
10389,-2.34931,-8.81126,1.88364,62.78987,7.56072,8.52203
10415,-2.01173,-8.84837,1.23601,80.18488,8.47625,17.37212
10442,-0.89004,-9.57381,0.1239,79.87971,26.05436,27.93119
10469,-0.34058,-9.62649,-0.56802,64.80403,20.31706,34.95023
10494,0.09996,-9.42777,-0.79188,59.00569,-5.25665,37.45267
10520,1.06722,-10.09216,-0.46388,70.29719,0.05341,32.14261
10548,1.78069,-10.2837,-1.14144,68.40511,20.92741,22.5601
10575,2.36248,-11.06301,-2.29903,29.89194,9.63592,9.98687
10602,2.29784,-11.67832,-2.33375,-12.52746,-16.05986,-2.03705
10628,0.81702,-10.83676,-0.5381,-23.87999,-21.12578,-11.61956
10655,-1.03729,-10.5279,1.12108,0.65613,20.5612,-13.99993
10682,-3.36445,-11.10371,-0.06045,-2.7008,47.53872,-3.31878
10709,-2.44388,-12.32236,-1.35332,-43.41122,25.38298,-2.15912
10737,-0.40642,-12.02308,-2.8066,-115.61576,-3.18146,-4.53949
10764,2.66295,-9.46847,-1.27312,-157.11963,-0.06866,-33.10392
10790,1.48859,-10.04547,1.08996,-165.35938,19.3405,-56.5414
10815,-1.62866,-12.34151,2.55761,-155.10548,57.91469,-55.93105
10840,-5.97054,-15.74008,3.77147,-105.72807,113.45664,-40.73331
10864,-5.4905,-14.97513,1.16298,-58.79207,123.22225,-31.45597
10888,-2.90357,-11.69029,-2.22481,-57.93758,65.23891,-40.3671
10911,-2.15299,-10.13286,-2.8892,-70.20564,27.153,-31.76114
10934,-1.53768,-8.94773,-0.49859,-67.27595,26.17643,-33.28702
10958,0.38846,-7.7231,0.53091,-60.44002,10.36834,-45.00577
10981,0.41958,-7.66564,-0.57401,-54.1534,-21.49199,-50.37686
11005,0.47226,-7.23468,-1.10433,-47.62264,-45.78396,-53.0624
11028,-0.64943,-6.88513,-0.54648,-35.9039,-44.07498,-47.63027
11050,-2.22361,-6.17046,0.19932,-17.71544,-37.91043,-32.67667
11074,-3.47459,-5.39473,0.659,-3.00598,-25.39824,-14.42717
11097,-4.07314,-4.69802,0.43155,18.05113,-13.61846,9.68169
11122,-3.51409,-5.01645,-1.01574,36.30063,-37.48319,40.44339
11146,-1.67654,-5.91308,-3.222,44.66244,-95.16136,64.6133
11172,1.82618,-7.73028,-5.35044,29.58677,-108.52806,49.04934
11197,6.68282,-16.58164,-15.06851,-35.65976,-57.01442,-2.34222
11222,4.19763,-18.38328,-11.75373,-54.70272,-39.37527,-39.57364
11245,0.15263,-13.78402,-1.31621,-5.32531,36.91861,-30.96769
11270,0.09517,-8.08941,-1.06722,13.35143,72.25794,-30.23527
11295,2.06799,-6.08307,-8.74063,-16.00646,6.8283,-11.07024
11320,-0.9068,-13.00949,-1.2396,3.34167,-97.54173,28.66361
11347,-3.0963,-15.96035,5.43903,48.20248,-91.80444,17.73833
11374,-4.9123,-14.60403,7.28017,-1.23596,113.57871,-17.96721
11400,-7.56747,-7.20834,-2.78027,-2.09045,71.15931,0.22125
11427,-5.47255,-7.0204,2.79703,67.42854,-12.70293,48.19485
11454,-3.37762,-7.87633,3.53085,80.79523,-43.52567,45.93655
11481,-1.79625,-11.0678,3.21601,79.39142,-62.20241,38.18509
11508,-0.80266,-10.63085,2.86287,92.81915,-47.85916,25.67289
11535,0.55486,-8.58381,-1.90638,85.00665,31.60856,20.24077
11563,0.19213,-9.07941,-3.28185,70.78547,-11.6043,10.53619
11590,-0.46148,-9.19314,-0.97264,59.98226,-32.96659,13.52691
11616,-1.33058,-8.98963,-0.15862,56.50325,-18.13506,27.44291
11643,-0.50218,-9.07462,-0.01856,61.20295,-1.96075,33.30228
11669,0.44592,-9.25179,-0.21249,63.64436,13.78631,29.39603
11694,0.65182,-9.97484,-1.63344,55.28255,26.90885,25.42875
11719,0.46627,-9.72225,-2.02011,50.1556,12.80974,23.90288
11742,0.31783,-9.76774,-1.96863,54.06185,-3.73077,23.23149
11766,0.98821,-10.30165,-1.83815,45.94418,-9.71221,18.898
11789,2.07278,-10.01674,-1.61788,11.64245,-35.95731,9.62066
11812,2.58275,-9.74739,-1.10073,-19.24132,-84.29712,7.66754
11836,1.27671,-10.79965,3.5105,-5.02014,-78.0105,1.68609
11863,-0.33698,-11.81718,3.97497,35.69028,9.75799,-10.88714
11891,-2.26192,-12.01111,1.50296,40.02377,77.99524,-17.35686
11917,-4.05997,-12.33433,-6.82766,-57.32722,27.64128,-1.79291
11942,-0.75357,-12.56178,-4.31734,-105.11772,-9.65118,4.06646
11968,2.05602,-11.41256,-1.73161,-145.64503,-30.95243,-21.44621
11995,1.45029,-10.63085,2.92751,-162.85693,-16.85332,-53.30654
12021,-1.60711,-12.28405,4.01328,-162.30762,33.13444,-64.10976
12047,-4.55916,-14.17906,4.09349,-109.87846,149.77254,-63.07216
12073,-5.27981,-13.56734,-1.75196,-38.04013,156.54742,-53.36757
12099,-3.06757,-10.78528,-4.3772,-43.04501,110.16074,-39.08536
12125,-1.31382,-9.21708,-3.72957,-65.93317,45.89077,-32.18839
12151,-0.90441,-7.90984,-0.02933,-54.88582,-6.84356,-36.33878
12178,0.92117,-6.53318,0.66379,-53.78719,-22.46855,-47.69131
12206,0.7847,-6.57867,0.04968,-53.05477,-22.46855,-40.73331
12234,-0.72484,-6.526,-1.14742,-34.86631,-73.92115,-38.65811
12261,-2.44747,-6.18243,0.01257,-12.46642,-82.77124,-33.28702
12288,-3.91512,-5.65451,0.79308,19.27184,-48.1033,-6.18743
12315,-3.97497,-5.18883,0.34536,51.1932,-27.65653,22.43803
12342,-3.03405,-6.05913,-1.78548,68.28303,-62.44655,57.8384
12368,-1.18573,-7.39389,-3.54043,62.97298,-87.34887,61.5005
12396,4.39516,-14.05456,-10.14842,26.10777,-81.36743,24.08598
12422,4.9949,-17.68657,-17.63988,-61.47762,-72.45631,-40.24503
12449,2.09553,-16.29434,-6.88153,-16.06749,30.8151,-50.68203
12475,2.61866,-5.50247,-2.81857,17.56285,98.74718,-49.09512
12502,3.49972,-4.25749,-8.75021,2.73132,29.96061,-5.02777
12529,0.28072,-11.79922,-2.63302,4.80652,-103.15697,46.24173
12555,-6.00645,-17.72607,5.77422,-12.83263,-49.324,30.49467
12583,-7.28496,-12.69106,-3.49972,-38.28427,23.42985,-14.54924
12610,-3.85526,-4.63098,4.4586,48.50766,-1.47247,8.88824
12637,-4.11264,-7.12933,4.59627,93.85674,-12.33672,54.11525
12664,-2.94547,-9.745,3.7559,92.575,-12.21465,46.85207
12692,-1.58676,-10.54945,1.6502,84.15216,-45.23465,26.58842
12719,-1.14862,-7.97688,-1.04208,107.46757,-81.3064,25.00151
12747,-0.80984,-6.5655,-4.92308,80.67316,-2.32696,23.35356
12773,0.30227,-10.13166,-0.6195,50.88802,16.65495,14.3814
12799,0.26276,-10.22504,0.53451,54.79427,-4.95147,13.22173
12827,-0.37769,-9.83239,0.97264,71.701,-19.29472,18.71489
12855,-0.76674,-8.83281,-0.28192,72.12824,-4.09698,24.33012
12882,-0.98462,-8.79809,-1.44311,60.65364,13.66424,32.44779
12911,-0.27473,-10.42974,-0.93673,56.07601,-20.57646,28.23637
12938,-0.20051,-10.36151,0.35614,53.6346,-25.70341,21.40044
12965,0.16221,-10.13406,0.79069,56.38118,18.42497,16.27349
12992,1.6909,-10.57698,-2.5193,32.15024,42.2897,6.3858
13019,1.29347,-11.11448,-3.0149,-28.7628,-37.42215,9.92583
13045,0.71168,-11.12645,-0.61112,-34.92735,-48.59158,14.68657
13073,-0.68893,-10.54825,2.48817,4.2572,26.42057,2.60162
13100,-0.73562,-11.96203,0.31065,-9.4757,31.48649,-18.08928
13128,0.70569,-12.20025,-4.99131,-90.53033,-14.65606,-17.53996
13155,2.45825,-11.33116,-2.77668,-148.45265,-47.43191,-39.14639
13182,1.50655,-11.22581,1.32579,-162.85693,-9.40704,-68.56532
13208,-5.25348,-13.82232,5.02603,-150.52785,74.4552,-62.64491
13235,-7.3891,-14.77163,3.29263,-97.85455,135.30721,-46.40957
13264,-6.78936,-13.40214,-0.96905,-55.31307,98.56408,-34.87394
13292,-2.50733,-9.15124,-2.15059,-70.87702,47.96597,-27.12248
13319,-0.65182,-8.57663,-0.56683,-73.86774,42.47281,-38.84122
13347,0.20411,-7.64169,2.41874,-38.22324,49.49184,-55.38174
13374,0.57042,-7.43699,0.62429,-23.81895,42.16763,-64.96424
13401,0.68534,-7.34601,-1.66816,-28.45762,-14.10674,-59.95937
13427,-1.34255,-6.6912,-1.96145,-27.84727,-78.92603,-48.85098
13455,-2.68809,-6.09743,0.31903,-16.67784,-63.0569,-31.02872
13482,-3.95821,-5.47733,1.11869,8.89587,-22.71269,3.82232
13511,-3.9235,-5.44382,-0.26276,30.62436,-10.62774,37.02542
13538,-3.31776,-6.10222,-1.83695,40.45102,-43.89188,78.3462
13565,-0.40163,-9.46129,-5.37917,33.18784,-102.85179,101.60057
13592,4.15334,-12.87662,-8.99083,9.07897,-96.0769,48.01174
13619,7.25264,-16.44637,-13.35905,-52.50546,-34.67557,-33.89737
13646,2.12426,-12.78564,0.14545,-36.20908,35.27066,-59.65419
13671,2.59711,-7.77098,0.14545,15.42662,72.50208,-51.59756
13698,4.44184,-4.36044,-6.20757,18.90563,64.32337,-24.3759
13724,1.46944,-9.06505,-4.84407,7.98034,-80.20776,30.31156
13752,-4.75788,-16.6822,3.31298,-14.41955,-79.29224,8.15582
13779,-7.82006,-14.59445,0.42916,-39.1998,51.99429,-32.31046
13806,-6.28897,-5.08828,3.47459,31.84507,55.35122,-6.00433
13832,-5.9861,-5.96096,3.93188,81.34454,68.77894,41.90823
13860,-5.08828,-8.342,3.4698,82.87042,57.97572,59.36428
13888,2.09672,-11.16237,-2.54085,51.3763,-86.55541,12.97759
13914,-2.83294,-11.45326,3.08912,95.93193,-63.17897,48.01174
13939,4.24911,-8.55748,-3.26988,72.06721,25.50505,18.40971
13967,0.58119,-9.50199,-0.30227,65.84162,40.58072,17.37212
13993,-0.13467,-9.37749,0.19812,67.73372,-1.10626,8.33892
14020,-1.64661,-9.21708,-0.39684,69.4427,-18.98955,16.27349
14048,-1.94589,-9.17518,-0.52253,63.94954,-4.70733,32.69193
14075,-0.63147,-8.94294,0.07841,68.03889,21.90398,41.29788
14100,0.5381,-8.9621,0.331,70.72443,34.41617,41.60306
14126,1.53408,-9.60135,-0.2903,63.76643,-0.61798,36.17093
14154,1.04926,-8.95491,0.38247,73.53205,-37.42215,27.50395
14180,0.34895,-8.91661,-0.03053,85.86114,-40.41287,17.49419
14207,0.79667,-11.42573,-3.62183,50.33871,9.45281,20.24077
14235,2.36966,-10.40341,-3.29981,-35.23252,-3.91388,8.15582
14261,2.12066,-10.37827,-0.25558,-41.39706,-31.01346,-0.69427
14288,-0.93434,-11.82676,4.23953,22.38463,51.62807,-9.17815
14316,-2.07757,-12.04104,0.18016,17.31871,49.18667,-3.25775
14343,-0.70928,-12.4277,-3.78583,-54.82479,9.20867,6.99615
14371,2.03208,-11.92492,-4.02765,-106.64359,-45.53982,4.79889
14398,4.54001,-11.05223,-2.51092,-148.14748,-81.79468,-44.82266
14425,0.15263,-11.27849,4.15214,-150.71095,-39.68045,-69.84706
14451,-3.49254,-13.16751,5.1601,-144.24123,83.00012,-71.12879
14479,-6.71035,-15.28638,4.35326,-90.77447,151.35945,-63.25526
14506,-6.60141,-12.21103,-2.2308,-34.19492,100.76134,-40.12296
14533,-4.05757,-9.67796,-2.37206,-53.78719,70.06068,-9.66644
14560,0.11672,-7.5579,-0.26516,-83.81647,23.18571,-15.58684
14588,0.77632,-7.32925,1.5281,-73.19636,2.1286,-30.66251
14615,1.31023,-7.26939,1.94948,-46.46298,17.75359,-45.2499
14642,0.43993,-7.60339,-1.08757,-30.22764,6.95037,-44.76162
14668,-0.33818,-7.57226,-2.64619,-23.0255,-39.31424,-45.43301
14695,-1.6083,-7.28496,-1.53648,-6.54602,-52.61989,-31.21183
14722,-3.1789,-6.23989,-0.01616,5.17273,-36.50663,-10.58196
14749,-2.89639,-5.77422,-0.28671,18.23424,-26.98515,12.73345
14776,-2.38762,-5.91308,-0.45669,32.63853,-28.20585,36.1099
14806,-0.9918,-7.49086,-2.97899,37.03305,-37.78836,54.66457
14831,0.51415,-8.83041,-5.42825,28.73228,-63.97243,55.5801
14856,2.9742,-10.29088,-7.02279,20.06529,-84.60229,23.23149
14883,5.62458,-13.3387,-8.02836,-2.39563,-59.33376,-18.6386
14909,3.53324,-13.06097,-4.53522,-7.70568,-3.6087,-35.17911
14935,2.81618,-10.53389,-3.19806,-7.15637,25.93229,-41.46572
14960,3.23756,-9.8707,-9.72824,-16.4337,27.76335,-34.87394
14988,-0.14305,-16.56608,-6.12976,-1.11389,-34.61454,-25.10832
15013,-3.98335,-18.14745,2.38043,-2.15149,-19.53886,-54.58828
