timestamp,ax,ay,az,wx,wy,wz
27,0.20291,3.36086,8.61733,-9.35363,6.21795,15.23589
58,0.13587,3.38361,9.33799,-5.93566,5.97381,15.17486
87,0.22685,3.35488,9.30925,-4.04358,7.56072,16.39556
115,0.42677,3.27467,9.32841,-3.25012,15.73943,15.35796
144,0.12031,3.1813,9.26496,-4.10461,18.1198,16.70073
173,0.47824,3.2208,9.74979,1.51062,19.82878,11.57378
201,0.19333,3.07356,9.31045,5.41687,4.32586,10.29205
232,0.37529,2.91075,8.84358,-1.60217,3.71551,11.39068
260,1.00856,3.35488,8.8352,-20.03477,11.46697,9.37652
286,0.24361,3.43388,10.05026,-19.30235,17.38738,8.8272
312,0.32022,2.66654,10.31721,-7.94982,3.83758,6.14166
338,0.69492,2.47022,11.08575,-4.04358,7.49969,-0.32806
365,0.9487,2.24995,10.92414,-6.91223,17.0822,-6.24847
392,0.44113,1.48022,9.94492,-4.83703,19.58464,-1.79291
419,0.4124,1.50176,9.36312,5.90515,-5.80596,-2.89154
445,0.5369,1.72682,9.63487,15.85387,-8.3084,5.40924
471,1.04926,1.79864,9.47086,16.40319,-13.31328,6.32476
497,1.4455,2.23559,8.91062,11.15417,-22.95683,2.17438
522,2.00455,1.81301,8.64127,10.11657,-44.68533,4.24957
548,1.51493,3.03645,9.70071,9.01794,-17.64678,-2.40326
574,1.35811,3.28305,9.01357,-1.41907,5.30243,-10.21575
599,0.75357,2.81139,7.88111,-16.00646,6.34002,-4.53949
625,0.75717,2.311,8.33003,-20.64513,8.11004,-0.51117
652,0.76555,2.50374,9.06265,-13.93126,20.25603,3.33404
677,1.38445,3.12383,8.26778,-11.36779,17.75359,-6.43157
702,1.08996,2.62823,8.19475,-9.4757,18.48601,-6.00433
727,1.14263,2.48698,6.94019,-20.64513,7.98797,-2.46429
752,1.37487,1.73879,5.6976,-43.89951,-32.84452,22.07182
784,2.49655,2.80301,7.8452,-36.7584,-22.0413,24.14701
816,3.30101,2.26312,7.24545,-13.9923,-67.26832,29.70121
851,7.18799,2.05243,7.4741,21.16393,-101.81419,-1.91498
883,6.25425,1.87047,6.00526,11.09313,-121.77267,-20.95793
914,3.83012,1.34015,3.31776,-6.1798,-158.3327,-27.00041
944,2.19488,0.78709,2.7683,-46.58505,-219.85609,-1.6098
971,2.82336,-0.37769,5.31932,-87.5396,-180.79362,16.45659
996,1.69809,-1.78667,6.57029,-98.34282,-203.74283,48.31692
1026,2.5169,-3.25671,10.90619,-100.29594,-217.71988,80.42139
1061,3.56078,-5.02962,14.32391,-89.91998,-134.40695,128.27292
1096,5.25228,-4.78062,18.33899,-28.57969,-88.50854,170.08197
1130,10.24419,-2.04046,17.89965,37.58237,-18.74541,145.91206
1164,10.37228,-1.54606,13.82951,57.23567,-32.2952,132.97263
1195,11.99435,-0.9092,11.97759,95.07745,-52.61989,106.23924
1223,11.37066,-0.90561,10.76852,143.41725,-54.20681,76.4541
1254,10.19272,-0.62429,7.94576,155.92944,-52.61989,59.91359
1287,6.53318,-0.86251,4.11264,157.45532,-35.04178,43.73928
1319,4.73154,-0.85892,3.90674,156.84499,-46.0281,69.00782
1353,3.45663,-0.56683,0.72245,141.70827,-107.85667,102.14989
1385,7.26221,-0.51894,-0.0006,113.02177,-128.91379,118.99558
1413,7.07906,-0.4136,2.78984,93.97881,-81.79468,136.69576
1438,6.67084,-1.01574,3.50332,87.6922,-73.00562,154.02972
1468,6.57029,-2.1889,2.90596,90.43877,-93.39135,171.79095
1502,7.66923,-2.26073,-0.75956,25.19224,-129.03586,204.3837
1530,7.59261,-7.36516,0.9068,-14.23644,-143.25703,272.4989
1554,12.20145,-7.54114,6.83604,6.94274,-157.96649,285.98764
1584,24.94818,-2.2703,8.65205,51.62045,-136.6042,158.60736
1616,17.43996,-2.8473,2.53366,-17.83751,-36.20145,101.60057
1647,8.7933,-8.24862,0.22326,-48.66024,-79.78052,110.87791
1679,8.31207,-8.5491,0.35733,-29.73936,-162.42206,106.91063
1713,6.98927,-8.30728,1.70527,-7.15637,-168.95282,66.99367
1742,0.02933,-11.44967,1.82977,-7.0343,-142.82979,97.20605
1770,3.17651,-10.75176,4.92308,50.94906,-97.29759,50.57522
1802,7.82844,-10.8595,0.76435,-5.56945,37.28482,-37.37638
1834,-1.06602,-12.92809,-0.43754,-52.20028,-17.15849,39.772
1867,-0.71646,-8.00441,-7.39988,-172.92772,-9.40704,129.06638
1900,8.66402,-2.67253,7.97568,27.08433,-111.09153,59.12014
1930,11.26292,-2.94786,4.85604,74.1424,6.40106,20.36284
1962,10.92055,-2.82097,-5.88674,19.2108,104.05724,-46.40957
1990,10.05864,-3.95702,-6.22073,-53.90926,198.0513,-110.86265
2021,-8.52994,-14.14674,4.46578,24.45982,21.04948,-44.82266
2051,-0.62908,-13.02266,3.40396,87.50909,18.97429,-12.77923
2081,2.67492,-6.55592,-0.44951,60.59261,-20.6375,-11.92474
2111,1.46226,-9.84436,-0.91758,-8.37707,-58.41823,66.68848
2142,6.59423,-9.05667,-7.30651,-127.3345,-136.4211,101.53954
2174,7.58184,-8.87351,-6.36678,-281.44815,-117.01193,112.09861
2203,11.42812,-9.40383,0.85892,-151.56543,297.17233,43.86136
2234,16.24166,-6.81569,-10.28848,-72.70808,129.32576,-87.66931
2266,2.11468,-8.92498,12.39059,109.84794,-111.27464,-49.46133
2299,-4.74471,-12.75212,-20.15379,-2.63977,-206.73354,92.07909
2329,-3.89836,-10.51713,-2.67372,-62.39314,23.00261,202.3085
2361,2.8473,-6.19081,5.40431,21.71324,298.27094,149.26898
2393,3.56197,-7.07546,1.55084,39.53549,49.30874,120.46043
2423,0.65062,-16.96352,-5.76344,30.99058,-263.13,195.89981
2454,2.68929,-14.3299,2.45466,93.6126,-19.47783,141.57857
2484,-0.26037,-10.14124,1.76991,139.08376,117.85117,77.91895
2516,-3.2208,-10.59973,-5.66289,67.0013,-86.12817,42.88479
2549,-4.64535,-10.22025,-1.11271,69.68684,-224.3727,50.63625
2581,0.10714,-9.86591,1.15341,128.52467,-146.85811,39.95511
2613,2.47381,-8.6712,-1.4048,100.81474,104.60655,-10.45989
2645,0.68654,-10.50755,-2.00095,51.55941,160.02643,-9.54437
2676,-0.70449,-10.37587,-0.88765,46.31039,79.09388,29.335
2709,1.34494,-9.70669,-2.21045,41.79379,-3.54767,37.14749
2741,3.50451,-11.37186,-1.02053,22.07945,-2.69317,8.88824
2772,2.33255,-11.84471,-0.54648,-6.05773,-10.13946,6.3858
2803,0.56204,-11.73099,0.14305,-18.5089,41.61832,-8.5678
2834,0.63027,-13.57093,-1.9806,-44.08261,35.88102,-26.93937
2864,1.12707,-11.53467,-3.1382,-113.35746,1.88446,-30.72355
2896,-0.94272,-11.03069,2.52289,-164.26074,27.58024,-49.64444
2927,-3.06278,-12.11047,3.56556,-175.67432,116.32529,-51.90273
2958,-5.08828,-15.26723,0.01975,-142.41017,157.8902,-43.90714
2990,-4.89674,-15.17505,-3.67211,-90.8355,66.58167,-11.19231
3020,-0.38607,-8.75141,-1.24319,-56.89998,28.5568,-20.40862
3050,0.36332,-7.20475,-0.31783,-46.95126,41.61832,-34.87394
3082,0.55246,-6.71633,0.12869,-44.57089,37.16275,-38.90226
3113,0.38367,-6.48051,0.08679,-39.01669,-11.66534,-37.01017
3143,-0.0401,-6.28418,-0.93314,-33.6456,-53.8406,-30.47941
3175,-2.54204,-5.84724,0.47585,-5.20324,-73.37183,-13.51165
3206,-3.30101,-5.44501,0.61112,21.71324,-53.47439,9.98687
3237,-2.96462,-5.54557,-0.81822,46.61557,-41.57254,34.40091
3266,-2.21763,-6.38833,-2.49057,67.85578,-62.26344,48.62209
3298,1.82498,-10.28729,-10.29806,49.30111,-65.80347,35.19437
3331,5.80534,-14.58607,-12.60368,-70.51081,10.85662,-37.31534
3363,2.53007,-15.55333,-7.69197,-69.77839,-30.64725,-53.12344
3394,-0.23044,-3.67809,-5.0799,-10.26916,14.33562,-24.86418
3423,1.26593,-5.73591,-8.0511,10.1776,13.84734,11.32964
3451,-0.20889,-17.25202,4.67408,19.51598,-152.5954,-8.75091
3479,-5.35044,-15.2373,7.15208,-10.75744,-62.81276,14.50347
3511,-5.07511,-9.63008,3.65415,-46.46298,-15.20537,21.40044
3541,-5.51325,-6.08427,0.29149,98.80058,-116.88986,35.49955
3573,-1.2396,-12.9233,8.73106,172.83618,34.23307,12.61138
3604,0.00898,-12.51389,4.47656,163.07056,116.02012,-8.26263
3635,0.34417,-7.68718,-5.19721,70.41926,131.88925,7.17925
3664,-0.34895,-6.63373,-5.50247,46.73764,58.15883,19.32524
3694,0.0006,-8.58142,-0.30227,64.62093,-17.40264,16.70073
3724,-0.42437,-9.66958,0.59795,69.68684,-34.06522,14.93071
3755,-0.29748,-10.11849,0.4148,59.06673,11.89422,19.81352
3786,0.26635,-9.39904,-0.23523,58.27327,61.5768,23.23149
3818,1.25636,-8.95252,-1.87765,64.743,42.96109,24.26909
3848,1.09834,-9.84795,-1.91357,58.33431,-35.95731,20.72905
3879,0.44233,-9.98562,1.24678,60.28743,-1.53351,19.87456
3910,0.26276,-10.96485,-2.02729,47.7142,52.84878,16.94487
3940,0.43515,-11.68191,-3.43508,-13.25988,-19.23369,28.60258
3969,2.59472,-11.04266,0.77393,-29.9835,-41.45047,18.83696
4000,1.21326,-10.78408,1.48859,-4.16565,42.83902,-7.46917
4030,-0.01616,-12.97717,-2.33255,-27.35899,34.59928,-27.8549
4060,-0.33938,-11.99196,-3.81935,-89.00445,2.61688,-24.31486
4090,0.48303,-10.13286,-0.80026,-145.15675,-24.17753,-37.0712
4119,-0.96187,-11.42214,1.65739,-168.28906,9.69695,-47.01992
4150,-3.83132,-14.59086,4.61542,-132.21732,83.73254,-44.45645
4180,-5.31094,-15.72093,0.96546,-80.82574,126.9454,-29.25871
4209,-2.78984,-9.99998,-3.31058,-60.44002,78.66663,-24.74211
4238,-1.10792,-8.19954,-2.78027,-71.67048,31.91373,-24.25383
4266,-0.58,-7.03476,1.03609,-58.36483,-1.77765,-20.34758
4296,0.12629,-6.81689,0.58718,-53.29891,-8.61358,-29.86906
4326,0.27234,-6.83844,-0.12989,-52.50546,-3.36456,-35.24015
4355,-1.18812,-6.42664,-0.85772,-35.29355,-23.62822,-29.25871
4384,-1.92075,-5.9873,-0.34297,1.32751,-52.49783,-19.18791
4414,-3.18608,-5.52163,0.68175,30.13609,-21.8582,2.17438
4442,-2.7647,-5.60542,0.35015,51.55941,0.96893,22.5601
4470,-0.81343,-7.12574,-3.45423,61.81331,-33.39384,33.60746
4499,0.65302,-8.56586,-6.68042,56.01497,-83.80884,33.72953
4529,5.51085,-14.28919,-12.04104,-0.80872,-35.53006,-6.43157
4557,4.8728,-16.13512,-12.10568,-54.21444,-26.5579,-44.94473
4586,1.30304,-8.99202,-1.36769,-9.17053,50.77358,-47.01992
4615,1.58197,-5.39234,-5.58148,17.13561,33.01237,-21.20207
4644,1.87167,-9.30806,-9.40861,18.1732,2.1286,1.80817
4673,-2.82695,-18.1271,4.64535,17.31871,-57.19753,-13.93889
4705,-5.68204,-13.45721,6.21954,-29.73936,83.06116,-12.65716
4735,-4.47536,-2.90955,-2.37325,-21.80479,20.19499,22.19389
4765,-5.57909,-9.94611,4.5412,83.41974,-24.05546,62.41603
4793,-4.37121,-13.21061,3.58831,126.44949,-43.22049,58.38771
4822,-2.58514,-13.5865,1.25995,119.8577,-90.5227,31.47123
4851,1.60711,-7.60698,-5.05715,54.06185,13.11492,22.92631
4881,0.87089,-8.09659,-1.41797,72.73859,37.71207,30.86088
4912,1.1558,-9.00399,0.55845,82.26007,-15.99883,6.93511
4941,-0.56683,-8.9178,-0.07003,66.08577,-28.99931,13.40484
4971,-1.48022,-8.83879,0.06644,56.99154,-2.26593,25.55082
4999,-0.69611,-9.13687,-0.04729,63.52229,40.09244,33.79057
5028,0.73562,-9.80845,-1.48859,65.23128,24.8947,42.39651
5056,1.45388,-10.08976,-1.57957,54.12288,-42.48807,28.66361
5086,0.71886,-9.87429,1.68013,51.49837,-5.37872,20.60698
5115,0.62668,-10.1149,-0.08918,43.31967,56.0226,13.64898
5141,1.16538,-11.3563,-3.11306,-9.90295,16.34978,22.13286
5168,2.15538,-11.31679,-1.34973,-39.68808,-54.14577,24.51323
5196,2.4343,-10.899,1.31142,-7.15637,-15.69365,4.37164
5224,0.92356,-12.06498,-0.57042,-0.50354,22.69743,-15.89202
5253,0.1251,-12.66233,-2.03208,-38.89463,6.34002,-30.84562
5281,-0.92356,-12.12005,-3.02448,-84.60992,-18.50127,-26.32902
5310,-0.66858,-10.0766,-1.07799,-137.95461,-7.33184,-36.64396
5339,-1.36529,-10.60571,1.58197,-157.97412,36.06412,-49.40029
5368,-4.0863,-13.89774,3.96779,-120.43753,76.5304,-52.0248
5396,-5.68563,-14.82669,2.14221,-78.32331,120.78086,-40.24503
5422,-4.1701,-10.99836,-2.77548,-70.75495,111.68662,-31.70011
5448,-2.62704,-9.35953,-2.08116,-67.58113,73.17347,-20.83586
5477,-1.26713,-8.15884,-0.55126,-61.17244,54.74086,-20.83586
5505,-0.49261,-6.98568,0.80625,-42.61776,9.69695,-24.559
5535,0.05327,-6.7702,0.32382,-38.71152,5.4245,-34.99601
5564,-0.51894,-6.79534,-0.25438,-26.74864,8.72039,-36.0336
5594,-0.99898,-6.58944,-0.68295,0.65613,-28.26689,-31.82218
5623,-3.70443,-5.75626,-0.67457,24.88707,-43.46463,-6.18743
5652,-3.03645,-5.80534,-0.14545,46.12729,-30.64725,13.1607
5680,0.43754,-7.07786,-1.71485,41.30551,-22.0413,14.32036
5709,0.80505,-8.11215,-2.80301,25.13121,-17.76885,20.97319
5738,0.24361,-9.5798,-3.44705,22.07945,-3.91388,35.56058
5768,1.41078,-11.16237,-7.03835,45.21176,-27.96171,16.39556
5798,3.11067,-11.86985,-8.15166,-11.30675,1.82342,-11.92474
5826,3.15376,-12.42052,-4.1689,-29.25108,11.65008,-9.17815
5852,3.80139,-11.16716,-7.32805,-35.53769,-6.11114,-3.37982
5880,1.0313,-13.13399,-6.26263,1.02234,-14.35088,12.36724
5910,-3.71879,-18.48144,-3.85766,41.18344,-50.72781,8.33892
5939,-4.85125,-12.70184,7.73267,31.17368,81.10803,-60.75283
5969,-4.52923,-6.8121,5.15053,30.56333,181.38872,-84.0072
5998,-4.2934,-3.51888,1.6083,39.7186,113.2125,-42.62539
6026,-6.47811,-6.0268,2.49296,68.83234,88.98156,30.61674
6054,-7.55311,-10.83316,1.23002,78.659,13.84734,68.51954
6083,-2.38403,-10.97921,-0.99539,68.71027,-75.99634,32.20365
6111,-1.6921,-9.23623,-0.29628,55.09945,-36.50663,30.79984
6141,0.1646,-9.2075,2.13024,44.78451,81.47424,40.26028
6169,1.4455,-9.91978,2.33375,41.48862,142.20418,28.2974
6198,2.64859,-10.95407,1.29227,43.13657,139.4576,11.02447
6225,2.51092,-10.68951,1.02532,37.64341,137.07722,-5.27191
6250,1.4036,-10.49917,1.1965,30.25815,151.54256,-12.10784
6278,-0.47106,-10.02512,0.95349,30.6854,154.96051,-11.55852
6305,-0.68654,-9.71028,0.14305,27.93882,140.55624,1.8692
6331,-0.26037,-9.77612,-0.35135,2.97546,100.39513,15.41899
6358,0.7428,-9.97245,2.58514,-8.74328,90.20226,10.16998
6384,0.64823,-9.85154,4.11982,13.41247,148.91805,1.74713
6408,0.83737,-9.52832,3.57634,26.1688,181.51079,-5.0888
6436,0.65182,-9.96766,1.99138,18.78355,176.44489,-0.75531
6464,0.71646,-11.11688,0.46029,-4.9591,166.55717,8.88824
6491,1.14982,-10.80922,1.10313,-17.89855,170.89067,7.4234
6519,1.82618,-9.16441,1.97701,-15.94542,182.85356,-13.51165
6548,1.5281,-8.73106,1.33656,-15.45714,210.44144,-58.43349
6576,-2.61387,-8.70592,-3.21003,-60.25691,280.08249,-65.63564
6604,-3.85407,-10.45608,-3.10468,-108.35258,282.89011,-36.0336
6631,-5.13137,-12.36904,-1.39402,-124.95413,239.00586,9.37652
6657,-5.66767,-12.77965,-2.6821,-133.80423,172.84381,43.92239
6684,-4.1701,-11.25335,-2.13623,-123.91653,111.68662,64.00294
6713,-2.3517,-10.02392,-0.41719,-100.41801,142.08211,63.51466
6741,-0.61112,-9.42178,1.10672,-60.50105,148.61287,57.22805
6769,-0.90202,-8.95132,0.71646,-31.2042,126.0909,52.1011
6798,-1.00616,-7.25862,1.20608,-20.82823,152.03084,45.69241
6826,-0.70569,-7.02638,0.33339,-9.53674,182.54839,47.64553
6854,1.23242,-8.33721,-4.41551,10.11657,138.23689,55.33596
6883,2.04884,-8.8783,-4.85604,7.79724,93.37609,50.45315
6911,1.8154,-9.56184,-4.86801,3.82995,48.45425,45.20413
6938,-0.01377,-9.30327,-3.53803,16.70836,39.17691,42.82376
6967,-1.15101,-8.56825,-3.43628,28.06089,45.15835,48.9883
6995,-0.81463,-7.07068,-4.32094,28.79331,58.46401,55.21389
7023,-0.16819,-6.45297,-4.18207,24.765,63.40785,50.33108
7050,0.26396,-6.29136,-4.02884,23.42222,56.57192,41.11478
7079,-0.24122,-7.81527,-3.96899,25.43638,57.60952,29.335
7107,-0.83019,-8.8364,-4.03124,35.93442,68.59583,21.94975
7134,-1.10552,-10.12807,-5.94181,48.01937,85.99084,20.36284
7163,-0.0401,-9.84196,-6.86477,54.6722,85.86877,22.13286
7192,2.13742,-9.31045,-6.57029,57.54086,80.98596,18.59282
7220,1.98659,-9.27813,-7.27299,50.39974,61.14955,11.0855
7248,0.79547,-11.12286,-6.28179,53.26839,39.66519,-2.58636
7276,-3.54162,-12.00513,-2.82336,48.87387,43.1442,-18.02825
7306,-4.81055,-11.72979,0.27952,61.75227,49.85806,-10.15472
7334,-3.4267,-7.67042,1.83336,50.76595,100.33409,-5.27191
7363,-2.70006,-6.95935,1.76991,24.21568,103.9962,7.78961
7391,-2.86885,-9.65522,3.07356,34.04233,38.50553,16.21245
7419,-2.73119,-10.47762,2.47261,67.42854,-17.76885,18.22661
7448,-0.88765,-10.26334,1.00856,84.45733,-18.07402,3.94439
7477,1.51254,-9.43974,0.2077,66.51301,38.50553,-3.37982
7505,2.20686,-9.73662,-1.28868,39.77963,75.12659,-7.59124
7531,0.3705,-10.10413,-2.4786,36.66684,34.53825,-14.3051
7560,-1.61429,-9.82042,-2.39121,35.202,-17.82988,-10.39886
7589,-2.724,-9.4577,-1.46824,30.38023,-14.9002,2.11334
7617,-2.01412,-9.65522,0.08679,26.65708,-1.65558,13.89312
7643,-1.20129,-9.59416,0.55366,29.4647,8.23211,18.22661
7669,0.33698,-9.33439,0.17418,39.84067,20.5612,20.24077
7697,1.02412,-9.80366,-0.39444,48.26351,33.74479,10.41412
7725,1.09714,-10.66557,-1.04686,39.53549,39.78726,6.75201
7752,1.87286,-10.23102,-1.61668,11.58141,21.53777,4.73785
7781,1.75914,-10.60571,-1.03609,-12.52746,-11.84844,10.84136
7810,0.97504,-11.09533,0.77153,-12.28332,-11.97051,2.29645
7837,-0.18854,-11.40059,1.05764,-4.53186,18.85222,-5.57708
7864,0.05567,-11.42693,-0.05686,-11.67297,14.76287,-27.42765
7890,-0.61711,-11.90936,-3.90794,-59.21932,-9.28497,-14.24407
7918,0.87688,-11.26891,-2.21643,-127.94485,-14.47295,-25.65763
7946,0.43993,-11.1085,0.93434,-154.37305,35.14859,-40.42813
7974,-2.51092,-11.62804,2.71562,-152.84717,88.92052,-43.05264
8002,-3.73076,-11.98118,1.49458,-112.93021,88.49329,-40.61124
8031,-4.91589,-12.04822,-1.82618,-76.61432,64.8727,-35.36222
8060,-3.52845,-10.37348,-1.76632,-69.22907,66.88686,-27.67179
8087,-0.67816,-8.4641,-0.40761,-71.67048,56.20571,-26.32902
8115,-0.06524,-7.91703,0.31304,-63.1866,33.37858,-28.95353
8144,0.50338,-7.61057,0.16221,-48.233,15.73943,-40.5502
8172,0.23643,-7.38432,-1.53887,-32.2418,-9.95635,-45.0668
8200,-0.93194,-7.06948,-1.56162,-14.90783,-39.68045,-36.94913
8230,-3.0544,-5.56831,0.11911,7.85827,-44.31912,-14.73235
8256,-2.95983,-4.96378,0.48902,28.97642,-16.97539,6.62994
8284,-2.69886,-5.31094,0.04369,46.55453,-14.77813,25.42875
8313,-1.15221,-7.1006,-3.86245,49.54525,-64.03346,43.0679
8341,0.92715,-8.59818,-7.01441,33.92026,-117.37815,31.41019
8368,7.05152,-16.01541,-14.97154,-25.10069,-97.72485,-11.25335
8396,5.50487,-16.71811,-10.0754,-57.87654,-10.26153,-50.92617
8425,2.62225,-12.24095,-2.30143,-3.98254,54.31362,-51.23135
8452,1.485,-4.38079,-7.3089,16.22008,31.60856,-29.74699
8479,0.35853,-8.97766,-3.90674,41.54965,-58.47927,2.66266
8507,-4.67169,-15.93162,6.21595,48.32455,-52.25368,3.45611
8534,-6.96054,-14.89493,1.5688,-28.88487,114.4332,1.93024
8562,-8.33841,-10.2801,-8.55029,-20.09581,4.93621,34.82816
8592,-2.0644,-7.26461,4.17369,71.82307,-91.80444,36.04886
8620,-1.10672,-9.25898,5.67007,117.11112,-58.96754,10.71929
8650,-1.21685,-11.07618,3.55838,113.26591,0.23651,4.85992
8678,-1.02532,-9.38707,1.34015,100.75372,30.26578,12.73345
8705,-1.2384,-7.58663,-4.60465,63.94954,48.08804,27.44291
8733,-0.17657,-8.93336,-1.57119,52.04769,11.89422,20.42387
8760,-0.0808,-9.96646,0.38367,47.8973,0.72479,19.50835
8789,0.20171,-9.85274,1.00616,51.43734,29.96061,22.86528
8817,0.64823,-9.4984,0.22326,57.72396,52.3605,23.71977
8844,0.86012,-9.19433,-2.07158,62.30159,57.91469,29.09086
8872,0.83737,-9.61691,-2.41874,56.99154,11.58904,28.78568
8901,0.67337,-10.00597,-1.6083,49.42318,-23.62822,27.19877
8928,0.96666,-10.07899,0.14664,37.82651,-1.3504,26.83256
8957,1.46226,-10.1149,-0.167,15.06041,10.06316,18.34868
8984,1.2372,-11.58016,-0.23762,-6.72912,-15.69365,10.16998
9012,0.46268,-11.1911,0.48662,2.48718,2.00653,2.29645
9040,-0.85413,-11.04625,-0.0401,12.19176,64.93373,5.59234
9067,-0.79547,-12.62762,-4.12341,-30.65488,50.46841,8.39996
9093,1.62626,-12.59889,-4.32453,-85.40338,-11.90948,0.22125
9121,3.32016,-11.01752,-3.2615,-129.959,-55.00027,-22.3007
9149,1.56401,-11.34313,1.89441,-146.8047,-62.20241,-47.01992
9176,-1.26953,-12.72339,3.28664,-153.03027,0.84686,-43.11368
9204,-4.9554,-14.10125,3.30699,-119.09476,104.48447,-39.02432
9231,-5.66049,-12.87063,0.21967,-64.34626,112.1749,-38.90226
9259,-4.18447,-10.25616,-2.3122,-56.2286,66.52064,-33.95841
9286,-1.38445,-8.35517,-1.4862,-65.07868,34.53825,-25.84074
9315,-0.69013,-7.49804,0.66738,-49.08749,12.50457,-30.41837
9347,0.62908,-6.76302,0.01377,-37.61288,-18.5623,-46.34854
9373,0.44712,-7.10898,-0.87329,-40.54257,-29.24345,-43.23574
9400,-0.09397,-7.36157,-0.83019,-26.32139,-41.51151,-38.65811
9427,-2.49177,-7.00244,-0.2496,0.53406,-51.7654,-31.21183
9455,-3.35368,-6.45058,-0.42796,19.57701,-41.87772,-16.44133
9483,-2.19129,-6.16327,-1.27312,37.94858,-11.48223,6.5689
9510,-1.09235,-6.58346,-2.32896,41.85482,-3.18146,23.04838
9538,-0.19094,-7.05152,-4.2132,36.17856,-48.46951,28.66361
9565,2.98018,-10.83197,-8.61015,16.28111,-87.65405,13.58794
9592,4.56514,-14.28919,-10.62367,-32.91318,-54.81716,-18.94377
9621,1.89202,-12.57495,-3.9654,-31.08213,41.92349,-29.74699
9649,2.75872,-7.65486,-5.30974,9.62829,74.82142,-32.92081
9677,2.55282,-7.76859,-8.06068,35.69028,38.50553,6.99615
9704,-2.02729,-16.45236,3.54162,26.90122,-56.52614,-1.54877
9732,-4.80935,-13.68107,5.26425,-23.51378,76.28626,-13.38958
9759,-4.461,-3.89237,-2.65337,-27.78623,23.24675,25.24565
9788,-3.70682,-6.66725,2.91674,57.29671,-68.12281,54.48146
9816,-3.53205,-10.81281,3.50212,94.89434,-94.91723,53.07766
9845,-1.02412,-12.62642,3.50451,94.10088,-53.29128,19.32524
9873,-0.10594,-9.67078,2.5205,99.1668,5.05828,8.76617
9901,-0.20291,-7.08983,-4.03243,74.63068,58.64711,20.79008
9928,-0.25199,-8.57543,-1.9411,73.53205,-10.44463,16.51763
9957,-0.60274,-9.53551,-0.31663,69.32063,-27.5955,17.00591
9985,-0.64464,-9.37988,-0.12031,58.33431,-18.07402,24.20805
10013,-0.01616,-8.90224,0.31663,60.4095,6.09588,33.66849
10042,0.91638,-8.45812,-0.35135,71.76203,35.20963,36.53714
10069,0.84216,-9.03632,-1.79625,74.38654,4.99725,28.1143
10097,-0.0401,-9.80485,-2.48817,55.95394,-30.03691,32.75297
10125,1.27431,-10.53269,-0.47465,35.26303,2.73895,32.99711
10153,2.58873,-10.72423,-0.82899,4.13513,10.42937,14.68657
10180,2.21404,-11.7681,-0.68295,-9.59777,-28.99931,3.70025
10209,0.97145,-11.77648,0.17178,5.84411,-23.81132,-3.80707
10238,-1.28988,-11.6017,-0.50458,4.4403,40.15347,-1.97601
10265,-0.97145,-12.0973,-2.09792,-28.45762,31.73063,-9.54437
10294,-0.2879,-11.72022,-3.5081,-93.52105,-29.79276,-12.41302
10321,2.1889,-9.81683,-1.91357,-147.53712,-66.719,-36.76603
10349,0.69731,-11.55382,0.93434,-162.979,-54.45095,-51.53652
10377,-3.30579,-14.88176,6.20517,-146.92677,41.74039,-55.56484
10405,-5.93582,-15.61917,4.65493,-110.85502,152.21393,-48.11856
10433,-7.73267,-14.50826,-0.93434,-75.8819,137.44345,-29.44181
10459,-2.74076,-9.40742,-3.32734,-70.1446,65.54408,-16.13616
10486,-1.13904,-8.15525,-0.95589,-73.07429,66.03236,-13.51165
10513,-1.05046,-7.21672,1.18693,-56.28963,43.57144,-16.74651
10541,1.68372,-5.57191,0.05207,-50.24715,-10.93291,-40.85538
10570,1.15341,-5.88435,-0.93314,-62.69831,-21.00371,-32.18839
10599,-0.93314,-6.35481,-0.48183,-45.05917,-44.44119,-19.37102
10627,-2.07398,-5.89273,0.30227,-1.297,-51.15505,-8.5678
10655,-3.66253,-5.61141,0.54289,44.90658,-25.76445,19.44731
10682,-2.9299,-5.93822,-1.02053,69.01545,-30.22001,42.09134
10708,-1.33058,-6.54754,-3.06398,79.20832,-66.3528,56.31252
10736,5.21397,-11.38144,-9.9521,60.65364,-75.99634,34.82816
10763,9.09737,-16.03936,-16.2273,-62.02693,-1.10626,-45.37197
10792,6.12736,-18.78072,-13.67029,-50.79647,-36.75077,-78.14783
10820,-0.06165,-7.36516,-1.58915,2.36511,31.97477,-54.95449
10846,1.72323,-2.30861,-6.5655,3.95202,85.25842,-5.76019
10873,0.71407,-8.42579,-5.18045,30.01402,-24.84892,25.856
10901,-4.38079,-17.5884,4.92427,17.07457,-78.86499,4.3106
10928,-6.95097,-13.64276,0.10475,-92.78863,115.95908,9.49859
10955,-3.53324,-4.72316,2.07278,-8.74328,0.54169,21.40044
10983,-3.58951,-7.9266,4.34488,96.84747,-81.4895,44.1055
11011,-2.75393,-11.27489,4.55437,127.36502,-77.58326,34.0347
11040,-0.60154,-12.02548,2.41874,118.20975,-57.80788,14.07622
11067,0.94152,-8.74303,-0.91279,62.17952,72.25794,9.8648
11094,-0.50338,-7.91224,-2.66774,70.11408,37.77311,15.35796
11121,-0.75717,-8.75619,-0.55605,86.41046,-27.53446,11.81792
11150,-1.2384,-9.0004,0.14186,69.86995,-22.71269,18.65386
11178,-1.25516,-9.06983,0.18375,59.86019,-5.07354,32.93607
11207,-0.37769,-9.14405,0.71407,69.86995,6.27899,40.13821
11234,0.8278,-9.06744,-0.42557,75.54621,23.8571,40.50443
11262,0.72484,-9.15124,-1.83575,66.1468,-9.10186,28.60258
11291,-0.17418,-9.83837,-1.89082,59.73811,-39.86356,26.10014
11319,0.55605,-11.38144,0.12151,52.65804,23.00261,25.36772
11347,2.15418,-10.95048,-1.38086,11.70348,49.43081,13.95415
11375,2.49775,-12.138,-1.70407,-22.23204,-11.23809,12.67241
11403,2.00694,-11.39221,-0.30586,-15.70128,-19.84404,6.44683
11431,0.17298,-10.82598,-1.52092,-16.67784,3.04413,-4.29535
11456,0.95948,-11.72261,-2.07158,-48.78231,0.72479,-25.5966
11482,1.27791,-11.51312,-2.69048,-94.55865,-27.7786,-37.43741
11510,2.00215,-10.87267,-2.76351,-140.76222,-65.86451,-49.15615
11538,-0.97145,-11.95126,2.11468,-171.40186,-36.99491,-46.22647
11566,-3.2615,-13.47517,2.8509,-162.7959,72.99036,-45.73819
11595,-6.69598,-15.92204,0.81822,-80.5816,114.67735,-43.66299
11624,-6.71274,-13.83789,-1.04327,-53.78719,92.64367,-18.02825
11653,-0.98701,-8.72866,-2.44628,-81.98541,44.48697,-18.57756
11680,-0.18974,-7.80689,-0.00898,-82.29059,18.42497,-25.35246
11709,0.16101,-7.20715,2.03687,-51.83407,-1.28937,-38.23087
11736,1.06841,-6.70676,0.52134,-33.34043,3.28827,-55.44277
11764,0.09876,-6.82886,-0.41958,-17.95958,2.61688,-44.33438
11792,-1.70168,-6.3991,-1.28868,4.74548,-42.5491,-35.42325
11821,-2.6414,-6.25306,-0.52493,26.77916,-64.70485,-15.46477
11847,-3.46022,-5.95378,0.17298,35.14096,-29.79276,8.88824
11871,-2.8904,-6.17405,-1.71485,41.48862,-26.31376,38.67337
11896,-2.18172,-7.00723,-4.08271,38.43686,-63.48414,57.28908
11924,-0.49979,-8.35995,-6.85759,39.04721,-108.5891,53.56594
11953,5.47255,-14.21737,-10.13406,0.9613,-26.67997,-7.46917
11981,4.15095,-16.76959,-13.90253,-64.71248,-7.94219,-37.01017
12009,2.06081,-8.49523,-1.96384,-30.65488,30.14371,-43.54092
12037,4.19524,-4.64056,-6.51043,-8.56017,67.31409,-37.25431
12065,5.06194,-6.4003,-8.35636,17.9901,-16.18193,0.34332
12092,-2.71203,-17.42201,4.06715,34.89682,-155.76923,16.94487
12120,-4.51846,-15.25885,6.51163,0.83923,20.13396,-19.55412
12149,-8.093,-6.84442,-3.49254,-32.73008,78.23938,-23.46037
12177,-8.27616,-7.15328,1.0756,76.88898,-12.58086,38.30716
12204,-7.22031,-9.39425,4.23714,106.24687,43.75454,45.99759
12232,-2.50613,-11.03428,1.48261,96.66435,22.45329,35.19437
12260,-1.45508,-10.83556,0.05207,93.79571,-49.14089,38.30716
12287,1.34375,-8.99202,-2.91674,74.56965,-16.304,29.09086
12315,2.21164,-8.78971,-0.4555,74.81379,40.15347,27.68705
12342,2.34692,-8.81844,0.09517,65.17023,26.05436,5.40924
12370,-0.85653,-8.91062,-1.3629,63.94954,-0.80109,13.1607
12398,-0.61471,-9.31404,-1.28509,64.31574,2.43377,27.74809
12427,1.83575,-9.92097,-1.2396,52.90218,25.87126,27.87016
12454,2.22361,-9.82281,-1.73999,44.84555,5.97381,19.75249
12482,1.58556,-9.35115,-1.6514,47.7142,-53.8406,13.89312
12510,-0.52613,-9.581,0.71527,52.10873,-41.14529,14.68657
12537,-0.84336,-9.55586,0.92835,41.24448,2.00653,20.79008
12565,0.71646,-10.14603,-0.35494,13.10729,-9.95635,29.1519
12592,1.90279,-10.88584,0.63865,0.83923,-34.98075,23.7808
12620,2.55641,-11.90217,1.64901,16.70836,1.02997,5.1651
12649,-0.15742,-11.54783,-1.34853,15.36559,34.59928,2.05231
12677,-0.40163,-12.551,-3.11905,-22.78135,-2.63214,-2.76947
12705,1.10672,-11.78965,-1.79745,-67.76424,-35.04178,-12.77923
12731,1.37726,-11.02829,-1.06482,-100.29594,-49.75124,-25.71867
12756,0.22087,-10.56382,-0.082,-137.40529,-16.73125,-39.93985
12784,-1.50775,-10.62008,1.56042,-175.12498,76.5304,-46.2875
12811,-5.34206,-12.23497,2.35051,-157.18066,124.44296,-46.2875
12840,-6.53916,-13.43087,1.71604,-66.54353,101.06651,-34.44669
12867,-3.38839,-11.3132,-2.16735,-52.20028,108.26865,-20.0424
12893,-1.54845,-9.82281,-2.70724,-81.4361,95.20714,-17.53996
12921,-0.63626,-8.53832,-0.75836,-74.72224,62.91957,-22.3007
12948,-0.00658,-7.46572,1.18812,-47.68368,11.83318,-31.57804
12976,0.80984,-7.07546,-0.0808,-44.99814,4.87518,-43.78506
13003,-0.80744,-7.53036,-1.11151,-38.89463,0.23651,-33.4091
13031,-1.34255,-7.0623,-1.24917,-17.10509,-26.31376,-25.53556
13059,-2.17094,-6.67563,-1.14982,6.21032,-35.40799,-9.48333
13087,-3.1789,-6.54036,-0.17059,26.35191,-14.35088,13.1607
13114,-1.93631,-6.77739,-0.21608,51.43734,-6.29425,32.44779
13143,0.26755,-7.53755,-2.61028,55.77083,-16.1209,43.61721
13170,1.072,-8.26897,-4.42867,49.24008,-26.49687,45.44827
13196,1.33896,-9.85513,-5.84484,62.30159,-55.42751,41.17581
13224,3.62422,-13.0885,-13.02625,-13.56505,-57.99098,-5.0888
13254,3.31776,-12.90056,-6.23151,-52.81063,12.3825,-23.64348
13283,3.65056,-8.66402,-6.75823,-44.50985,41.13004,-14.36614
13310,3.87801,-8.82323,-8.34439,-13.07677,8.96453,0.58746
13339,1.14622,-13.44524,-5.41748,30.19712,-115.85227,-8.68987
13367,-4.44663,-16.49066,7.12335,50.09457,-23.20097,-51.10928
13395,-5.73591,-12.95443,7.04314,27.32847,167.16754,-65.02528
13422,-5.79457,-4.03483,-4.72675,23.42222,77.81214,-37.68155
13450,-7.20116,-5.48811,-0.02574,51.68148,5.4245,18.65386
13477,-6.24228,-8.81365,3.33572,50.94906,45.40249,43.86136
13505,-3.29741,-11.73817,2.00335,38.13169,27.82438,40.56546
13531,-1.6933,-10.08378,2.17453,55.52669,-5.92804,29.88431
13559,-0.46866,-8.99921,0.92596,67.48957,-0.80109,26.58842
13587,1.53049,-9.99998,-0.9918,25.55845,134.45273,16.27349
13614,1.09475,-10.12568,1.09714,10.48278,184.25737,3.76129
13643,-1.37248,-9.84675,2.09672,22.26256,158.9278,2.84576
13669,-1.75315,-10.06463,1.99856,30.19712,137.87068,14.74761
13696,-1.00018,-10.31123,2.20925,28.61021,132.98788,16.57866
13724,0.01856,-9.62768,2.44029,39.04721,133.78133,22.25493
13751,1.54366,-9.63008,1.01454,44.66244,157.34088,19.69145
13778,2.97061,-10.48002,-0.89842,24.03258,170.4024,9.98687
13806,0.94631,-11.2306,0.18256,4.31823,132.80478,6.14166
13834,0.03651,-10.5686,1.54366,6.88171,137.93172,6.75201
13863,-0.03651,-9.33679,2.31699,15.79284,153.0074,8.46099
13891,0.75836,-9.72465,1.09834,13.4735,160.02643,9.68169
13919,1.90519,-10.12328,-0.48902,2.79236,171.37897,2.29645
13946,1.18453,-9.79288,-0.1658,-0.07629,183.46391,-4.53949
13973,0.31424,-9.39784,0.29509,2.18201,190.11674,-11.92474
13999,0.39444,-8.10737,0.49979,-9.96398,178.45903,-36.8881
14027,-1.20009,-9.58339,-0.05327,-21.86583,164.6651,-37.86465
14055,-2.55282,-12.08533,-1.0756,-57.08309,196.64749,-17.72307
14083,-1.08996,-10.50276,0.07362,-90.89654,241.02002,-21.32414
14111,-1.86329,-9.88865,-0.15862,-102.92046,263.48093,-16.86858
14138,-3.29622,-9.89344,-1.80224,-83.63335,208.73245,6.20269
14165,-3.02328,-9.64803,-2.39001,-76.18708,164.90924,33.11918
14193,-2.36727,-9.65641,-2.16735,-86.92926,153.86188,63.39259
14221,0.6195,-9.95329,-1.08996,-85.76958,132.49959,66.56641
14248,1.6107,-10.01195,-0.60513,-64.52937,120.71983,54.29836
14275,2.12785,-9.77612,-0.06524,-31.26524,105.88828,47.5845
14303,2.34093,-8.48206,-0.29868,-0.68664,96.79405,37.63578
14329,1.96145,-7.91104,-0.82061,19.45494,99.4796,28.05326
14355,1.09714,-8.12412,-1.97581,27.26744,101.7379,26.0391
14383,-0.30107,-8.94773,-5.16489,14.02282,82.93908,30.79984
14410,-0.85174,-9.05667,-5.69281,-1.4801,65.66615,42.09134
14437,-1.42874,-8.64845,-4.24432,-6.91223,71.58656,53.99318
14465,-1.08158,-8.40425,-3.49972,-9.96398,78.36146,63.51466
14492,-0.75477,-7.89069,-2.87843,-9.29259,71.64759,70.04542
14519,-0.01736,-7.19517,-3.03525,-2.45666,54.49672,71.44923
14546,0.64703,-7.71232,-3.49374,5.66101,22.27019,67.11573
14573,1.57,-8.2977,-3.87322,14.14489,-5.92804,54.29836
14600,1.9387,-9.4146,-4.25629,37.76548,14.33562,33.79057
14629,1.88364,-9.65402,-5.06194,43.1976,44.42593,8.94927
14656,-0.48662,-8.8771,-4.77344,54.18392,47.66079,-2.22015
14682,-0.61112,-8.44734,-4.20961,69.80891,56.51088,-3.68499
14709,-1.04088,-8.63648,-5.03082,61.81331,61.51576,-1.12152
14737,-3.63021,-13.57692,-5.75387,65.17023,53.21499,-0.45013
14763,-5.61859,-15.70896,-5.70598,58.70052,61.82094,-6.85882
14791,-5.92026,-13.45122,-4.34847,31.723,80.61975,1.8692
14818,-1.50895,-5.66049,-1.9423,-5.56945,49.61392,16.70073
14846,-0.40402,-5.64613,1.19411,-16.98302,10.67352,30.25052
14874,1.00616,-9.67916,6.58705,18.90563,2.25067,10.78033
14902,-0.89004,-11.71662,6.4015,76.27863,27.27506,-6.67571
14930,-1.88244,-11.72141,4.33889,108.62724,51.20083,-28.64835
14956,-1.28628,-9.47206,-1.25516,113.20487,37.46793,-26.14592
14983,0.01018,-9.73063,-2.80181,72.79963,73.41761,-24.49797
15009,0.86251,-10.27651,-3.62781,22.20152,85.7467,-25.77971
