timestamp,ax,ay,az,wx,wy,wz
27,-0.87448,3.65535,8.59937,-7.75909,-29.91483,-32.67667
49,-1.1965,3.72837,7.93498,-20.14922,-24.90995,-24.00969
71,-0.98222,4.28622,7.7219,-28.14482,-38.09354,-20.59172
96,0.0844,4.55437,9.083,-12.76397,-65.55934,-31.08976
121,0.63626,4.3353,9.80845,2.61688,-71.41871,-36.09464
146,0.22924,3.61225,8.63409,-14.59502,-62.38551,-19.61516
173,-0.14066,3.45423,8.19954,-30.03691,-64.2776,-5.33294
197,0.46268,4.39156,9.66479,-11.84844,-73.79908,-9.97161
220,2.05722,4.98892,8.79929,3.22723,-124.88546,-29.93009
246,1.83336,4.8321,8.10258,3.95965,-157.6003,-26.87834
271,1.47423,1.898,6.70077,-15.0833,-132.82004,7.36236
297,2.18411,2.05482,7.32087,-29.18241,-104.37767,32.814
321,2.88801,2.95265,8.35517,-7.33184,-123.60374,40.32132
345,4.5819,3.54162,7.95892,20.19499,-163.7038,37.81888
371,1.96265,1.0744,5.11222,32.34098,-219.24576,77.85791
397,1.74238,0.16221,6.4817,50.71255,-159.0041,135.10884
424,2.77308,0.45191,5.47374,80.61975,-177.19255,138.28267
450,3.95462,0.93434,3.64577,109.55039,-204.84146,148.04828
475,3.01969,-0.26755,2.90477,127.98299,-232.24622,173.56097
500,4.80576,-0.58598,4.73154,136.28378,-204.59732,205.72647
527,7.44657,-0.11073,7.57825,154.59431,-143.56221,224.46425
552,10.75894,1.72682,6.07948,164.29889,-97.72485,225.25771
577,12.04942,2.57676,2.8473,146.17146,-79.47534,210.18204
601,13.79359,3.64936,1.86927,119.07188,-71.96803,182.53313
625,14.46876,3.33931,2.44268,112.90733,-40.1077,153.60248
649,14.13357,3.35128,0.96187,102.7755,-22.52958,136.45161
673,14.18026,3.46381,0.09278,81.96252,-2.388,107.15477
696,13.58889,3.91991,-2.16017,47.59975,-41.45047,84.4497
721,13.64037,3.94026,-6.35122,-35.53006,-120.42991,63.20949
745,10.92414,-1.58317,-2.66774,-83.5647,-69.8318,79.68896
770,10.71944,-2.25713,-0.02454,-71.11353,12.99285,79.07861
803,9.7462,-1.77111,2.63063,6.88934,-5.19561,77.91895
829,9.00399,-4.12581,4.53522,61.27162,-45.17361,81.15381
855,6.84083,-5.27024,4.25629,83.85461,-14.59502,121.25388
881,9.41819,-4.12461,0.92476,51.99429,-27.10722,108.31443
909,8.093,-3.54282,0.94751,13.72527,-8.49151,99.09813
934,5.61261,-6.08307,2.1075,10.06316,-29.67069,112.77
961,4.90991,-9.01956,5.64852,60.72231,-73.3108,155.00629
989,7.90625,-3.35727,1.16298,93.43713,-29.54862,155.5556
1014,10.24419,-1.91835,-2.86167,34.84342,-29.97587,89.88183
1041,9.28052,-4.03483,2.5193,26.23747,26.23747,80.23828
1067,4.63936,-8.23905,4.46698,40.82486,54.37465,99.89159
1092,4.40473,-6.05194,1.28628,38.13932,29.22819,89.63769
1117,5.23073,-6.98568,-0.11313,33.31754,11.52801,80.90967
1144,7.37354,-8.55508,2.86646,33.86686,38.62759,56.49562
1171,5.08828,-7.1437,-0.07123,-10.68877,24.22331,55.88527
1197,1.17017,-5.29538,0.44113,-51.03298,-12.09258,137.55026
1223,0.88047,-6.7738,2.22002,-25.45927,-61.95826,225.86806
1249,6.42304,-10.04906,4.48853,165.15338,-70.74732,167.15228
1274,9.32601,-9.75697,-4.31375,68.10755,-11.36016,69.313
1301,5.09785,-9.98322,-2.39241,-8.91876,83.36633,91.52978
1327,2.61148,-8.7969,0.86371,-21.30888,47.66079,132.91159
1354,2.24636,-8.48565,2.12066,1.33514,11.95525,181.86174
1380,3.04483,-7.7231,0.07721,-68.55006,-41.45047,196.38811
1405,4.9542,-6.98808,2.14461,-71.60181,8.84246,157.20355
1432,6.90548,-9.20271,-2.00335,-83.93091,70.54896,51.91799
1457,9.2506,-21.25273,-8.44495,-205.51285,47.66079,-98.04527
1481,7.02399,-26.38231,-8.8783,-203.98697,71.09827,-147.36165
1507,-3.06757,-19.39483,0.99419,-210.94498,106.80381,-134.84946
1534,-6.24587,-15.03978,3.23876,-146.49188,86.35706,-88.58484
1561,-7.16644,-12.67311,6.18482,-44.8074,69.5724,-34.50772
1586,0.60513,-10.2801,0.69252,0.84686,58.89125,-19.79827
1612,6.98927,-8.50121,-1.26953,-14.22881,72.68519,-93.58971
1638,8.27496,-7.83084,-1.38086,-22.10234,2.18963,-124.41245
1665,1.88244,-6.94737,-1.18094,-37.17801,-100.34935,-96.3363
1691,0.96546,-6.6493,1.11869,-38.09354,-133.79659,-79.3075
1718,-0.32262,-6.14771,1.64063,-24.05546,-138.61836,-54.58828
1745,-2.82576,-5.62218,2.01173,3.89862,-116.27952,-30.2963
1769,-3.41832,-5.47255,2.00814,42.2897,-67.69557,-3.99017
1795,-3.49015,-5.21876,0.85892,84.46496,-46.45535,34.21781
1821,-2.75752,-5.43304,-0.6207,126.02987,-3.30353,86.46386
1848,-1.97222,-7.43459,-5.10743,109.42832,0.96893,123.63425
1874,4.02046,-12.27567,-13.60206,-13.74053,-43.52567,49.72073
1900,13.05738,-17.91641,-8.4665,-35.10282,65.05579,-71.495
1927,11.05583,-13.47876,-6.29017,-29.67069,67.98548,-34.44669
1952,6.46015,-6.30932,-3.66014,26.1154,22.20915,7.91168
1976,5.98131,-6.13813,3.10947,54.06948,7.19451,-6.73675
2001,-4.39755,-19.83656,4.82851,65.05579,36.24723,47.64553
2027,-1.7328,-15.3199,-7.05272,29.71647,21.90398,10.29205
2053,-1.1977,-7.63092,-5.29178,22.02604,-97.05346,-17.84514
2079,-6.46015,-7.17602,0.97983,20.98845,-52.92507,51.0635
2105,-5.2032,-7.29573,5.19841,38.68863,24.95573,97.14501
2131,-4.55557,-9.09976,3.95702,47.8439,49.49184,110.20652
2157,-3.00532,-9.67557,2.53606,72.74622,19.76775,87.9287
2184,0.15502,-10.85711,-0.71048,90.4464,-54.81716,58.99806
2210,1.29706,-9.36432,-1.54725,48.8815,-41.81668,38.18509
2236,1.16418,-8.69155,-0.66858,24.34538,-0.49591,37.5137
2263,2.69168,-8.34918,1.65858,35.08756,2.73895,30.92191
2289,2.54683,-9.15483,1.69809,48.21011,-7.0877,23.41459
2314,2.0249,-9.38707,1.79386,58.15883,6.27899,26.0391
2341,2.01771,-9.29489,1.14383,60.96645,3.83758,15.05278
2366,1.75196,-9.10455,1.02891,57.91469,-2.5711,6.14166
2392,1.05046,-9.0842,1.38804,70.91517,4.87518,5.04303
2418,-0.70928,-8.29172,1.73759,86.47912,41.49625,12.06206
2445,-1.65499,-9.29968,1.08278,80.61975,51.07876,33.54642
2471,-1.5688,-10.64402,0.95828,64.26234,48.8815,44.22757
2496,-1.321,-12.44566,0.98701,46.31802,45.5856,32.26469
2521,1.46585,-11.76571,-2.72879,-10.3836,46.98941,19.87456
2548,2.69886,-10.58536,-0.36931,-28.69413,1.70135,15.72417
2574,4.22636,-9.9916,3.55838,3.59344,38.9938,-10.52093
2602,4.69084,-11.18272,0.69611,-8.36944,87.15051,-33.47013
2628,3.76668,-12.37862,-3.20763,-78.37672,60.60024,-59.22695
2655,2.98617,-10.96604,-4.90752,-132.69795,5.30243,-86.2655
2682,1.14862,-11.78246,-3.98934,-182.92986,-23.81132,-112.02232
2709,0.43275,-12.45045,0.55725,-185.12712,31.97477,-125.0228
2737,-2.71083,-15.69579,5.29777,-155.15887,94.35265,-120.81138
2763,-5.46896,-17.95113,6.25665,-93.20824,133.29306,-85.41101
2790,-6.59543,-17.19336,0.7009,-70.62526,59.74574,-53.30654
2816,-2.0656,-11.00674,-2.07996,-83.62572,-34.30936,-26.45109
2842,2.07398,-8.10377,0.78829,-60.67653,-96.13793,-52.39101
2868,5.82569,-6.32129,2.31579,-62.50758,-35.22489,-109.64194
2894,4.85005,-6.3177,2.69048,-50.5447,-25.09306,-103.4774
2920,-0.88885,-6.82288,0.17657,-39.37527,-76.30152,-62.82801
2946,-1.04686,-5.48931,0.60873,-18.25713,-102.24144,-49.88857
2972,-1.99617,-4.80337,1.82019,14.70183,-86.31128,-25.04728
2998,-2.72281,-5.18045,1.74477,48.33218,-51.27712,4.92096
3025,-2.60429,-5.31932,1.01335,83.24426,-17.76885,40.32132
3052,-2.40318,-5.44382,0.38367,123.40536,7.49969,87.01318
3078,-2.41395,-10.22623,-12.17511,77.9342,-45.53982,122.47458
3104,7.55431,-16.16505,-14.25448,-21.98027,-77.94946,14.07622
3130,15.97591,-19.46067,-7.70035,-42.97635,88.24914,-96.15319
3156,5.08469,-10.18194,-5.47614,-23.13994,78.05627,-27.67179
3181,3.65894,-4.59387,-0.78111,21.04948,103.50792,12.79449
3207,2.46782,-8.02117,2.03806,46.86733,37.65104,5.10406
3234,-2.18411,-17.26758,3.74752,46.8063,28.80094,32.08158
3260,-0.95708,-9.90302,-0.96307,57.73159,-39.74149,9.62066
3286,0.22326,-6.95815,-4.06476,19.82878,-39.80252,15.05278
3312,-5.46536,-8.71549,3.33213,12.87078,-47.43191,72.97511
3338,-5.01406,-10.22264,3.80139,26.05436,-38.887,102.45506
3366,-3.62542,-9.98322,3.64816,43.75454,-21.8582,96.53465
3395,0.08559,-9.4541,2.08595,81.53528,-27.53446,51.2466
3422,0.72724,-9.63846,0.49021,88.55432,-39.25321,40.56546
3447,1.51852,-8.86752,-0.63027,49.30874,18.05876,32.69193
3472,2.11348,-9.27334,-0.35015,35.75895,11.65008,28.84672
3498,2.33973,-8.95252,0.25319,44.18179,-33.94315,22.07182
3525,1.75196,-8.53712,0.56324,46.56216,-46.39431,25.30668
3550,1.67774,-8.2163,1.15939,46.68423,-15.26641,17.25005
3577,0.88166,-9.31524,1.10672,51.93325,-3.97491,16.15142
3604,0.75118,-9.52832,0.86131,57.85366,-19.84404,19.63042
3630,0.55486,-9.34277,1.4443,65.48305,-3.54767,21.76665
3657,-0.82061,-9.10934,1.86209,82.2677,6.46209,30.61674
3682,-0.69013,-9.20391,0.98462,87.8219,5.79071,28.17533
3709,-0.09637,-10.10413,-0.34656,42.16763,49.18667,24.08598
3735,1.7735,-11.0654,-1.29706,-9.77325,67.31409,13.3438
3762,2.70964,-10.84154,0.05806,-12.27569,2.73895,9.49859
3788,4.01089,-10.87626,0.87209,-14.96123,-0.00763,-1.91498
3813,5.97772,-12.50073,0.79428,-36.07938,-12.94707,-33.34806
3840,5.47614,-13.63797,0.7033,-50.72781,-13.31328,-74.6078
3866,1.87406,-13.94203,-4.61542,-148.0788,33.37858,-89.19519
3893,-0.44113,-11.24377,-3.02088,-204.10904,27.70231,-110.4354
3919,-2.94307,-12.13561,2.87364,-184.94402,89.40881,-117.2103
3945,-5.46058,-13.99112,4.99371,-138.61836,134.26962,-90.29382
3970,-6.98089,-15.70177,5.36481,-76.97291,147.20906,-45.00577
3997,-4.03363,-13.69902,-3.69365,-73.06666,65.36098,-34.20255
4023,-1.17017,-12.00991,-3.55958,-69.40455,-12.6419,-20.65276
4049,8.44974,-6.86597,0.68295,-60.43239,-40.53494,-86.44861
4074,7.05511,-6.72232,1.46585,-70.74732,-8.61358,-121.97105
4101,1.35572,-6.92224,1.51014,-51.94851,-48.53054,-61.058
4127,-0.24122,-6.10821,1.20009,-39.49734,-59.63893,-43.05264
4154,-2.08595,-5.6581,1.10792,-12.45879,-81.3064,-36.58292
4181,-2.73119,-6.13933,1.10672,21.90398,-76.97291,-18.27239
4207,-2.5588,-5.95139,1.37966,56.81606,-44.86843,5.3482
4235,-2.09433,-5.57669,0.86012,102.65343,-2.51007,49.53762
4262,-1.93511,-6.14173,-0.73801,127.43368,1.21307,92.56738
4288,-2.00455,-7.62493,-4.44184,94.90197,-37.42215,118.32419
4314,10.95287,-15.90169,-11.27609,5.54657,-81.91675,7.78961
4342,16.58045,-18.54369,-8.40664,-31.31864,40.70279,-92.06384
4369,4.68007,-9.19433,-5.0368,-20.6375,42.83902,-6.18743
4396,4.78302,-7.87034,1.23601,31.30338,90.62951,0.89264
4423,2.44867,-15.32708,4.01807,42.83902,60.78334,-32.12735
4450,-6.11778,-11.18152,-2.63422,23.24675,38.9938,3.57818
4476,-4.79738,-6.26982,-1.76153,34.78238,-42.06082,52.16213
4502,-3.48895,-5.97772,0.8266,30.14371,-104.68285,67.11573
4528,-3.35966,-9.32841,3.61225,12.62664,-62.75172,74.68409
4554,-3.55359,-10.63325,3.91632,36.91861,-6.53839,79.99414
4581,-1.40599,-9.96048,2.1877,51.44497,11.40594,46.66897
4609,-0.21249,-9.28292,0.66978,46.07388,0.11444,32.814
4636,0.17657,-8.48924,1.01813,52.78774,6.70623,33.8516
4661,0.77991,-8.96688,0.25079,35.20963,-12.76397,27.32084
4687,1.6933,-9.85633,0.89723,28.67887,-40.53494,14.62554
4713,1.49937,-9.28412,2.13144,38.9938,-14.47295,10.41412
4739,1.17855,-8.65803,1.99377,38.01725,28.31266,11.69585
4765,0.99419,-8.51797,1.14024,33.37858,40.21451,8.6441
4790,0.70689,-9.76296,0.84455,44.18179,13.84734,12.1231
4813,0.80744,-9.66958,0.7452,52.23842,-3.05939,12.48931
4837,0.77153,-9.42777,1.10792,55.71743,6.40106,13.46587
4862,0.47226,-9.21468,1.39642,62.49232,17.38738,20.48491
4888,-0.47345,-9.51635,0.79308,76.65247,12.32146,30.00639
4913,-0.38487,-10.04308,-0.4136,71.76966,-1.47247,40.44339
4939,0.35135,-10.2813,-1.23242,40.09244,6.95037,44.2886
4965,1.65858,-10.31482,-1.60352,0.41962,15.61736,32.44779
4991,2.46304,-10.08258,0.60992,-18.74541,-7.20977,24.14701
5019,3.31298,-10.17955,1.83216,-9.77325,-23.87236,17.79936
5045,5.00089,-11.04146,2.55282,5.30243,-16.36504,-5.27191
5068,5.35284,-11.8938,1.54246,-11.84844,-25.15409,-38.78019
5093,4.26108,-12.32116,1.29227,-36.32352,30.20475,-67.89393
5118,1.37607,-13.25251,-1.87047,-96.93139,63.77406,-63.07216
5148,-0.31184,-10.69909,-5.63056,-175.78874,-14.16778,-81.07751
5174,-1.22404,-9.7438,1.05764,-192.51236,47.72183,-101.40221
5202,-3.77147,-10.99238,5.06074,-163.82587,139.76277,-84.19031
5228,-4.11264,-15.20139,3.77147,-120.79612,130.48544,-75.58436
5254,-4.24073,-15.24448,2.14341,-70.25904,0.41962,-37.0712
5280,-1.01933,-12.48756,-0.33698,-67.87867,-24.23857,-25.84074
5307,5.14215,-9.4577,0.17897,-51.52126,-63.78932,-49.94961
5333,7.20954,-8.15046,0.82301,-46.51638,-75.14185,-94.13903
5360,5.94899,-8.04272,1.66457,-30.64725,-75.32496,-95.17662
5386,1.35452,-8.16722,1.98659,-11.66534,-86.12817,-70.2743
5413,-0.60274,-8.1349,2.09792,-0.98419,-74.47047,-56.11415
5440,-2.06679,-7.75302,1.96863,25.74919,-98.45727,-44.57852
5465,-3.40755,-6.52121,1.6921,47.17251,-109.74876,-25.71867
5492,-3.0137,-6.09504,1.06722,66.21547,-88.81371,7.91168
5518,-1.95906,-6.0699,0.67217,100.15099,-63.78932,51.42971
5545,-1.56641,-8.73824,-4.74231,110.16074,-105.41527,92.93359
5572,3.33572,-11.33355,-7.06589,52.90981,-134.28488,61.43947
5599,10.44052,-13.23215,-9.32841,-14.83916,-140.69356,-31.3339
5625,8.10018,-14.29997,-3.19207,-1.41144,-85.88403,-30.2963
5651,6.14891,-10.40101,-0.13108,15.92253,-42.67117,-23.58244
5677,4.64056,-10.27292,2.59352,15.92253,12.3825,-52.75723
5702,-5.23432,-11.81958,6.526,50.40737,-19.66093,-11.25335
5726,-7.16405,-10.55424,-5.00807,56.0226,-91.92651,42.64066
5754,-6.01603,-7.62015,-9.0423,7.80486,-103.82835,75.11133
5779,-2.47141,-8.2977,0.61711,11.03973,-164.37518,85.24316
5806,1.08517,-13.74332,2.88082,13.54216,-150.39815,68.82471
5833,2.31459,-12.32834,2.0249,10.55144,-102.24144,34.15678
5860,1.7735,-8.26419,2.08116,17.20427,-56.64821,10.23101
5885,-1.1965,-7.44417,1.84294,31.24235,-37.48319,10.0479
5912,-1.46346,-9.7031,0.43155,22.45329,-76.24049,28.23637
5938,0.67337,-10.57818,0.15502,28.43473,-114.14329,30.86088
5962,3.31776,-9.92816,0.7416,41.74039,-130.98897,28.2974
5988,3.61105,-9.39185,-0.51775,30.87614,-146.49188,14.93071
6014,2.99455,-9.35355,-0.71527,18.24187,-150.39815,-3.13568
6039,1.45029,-9.67676,-0.0808,13.78631,-142.82979,-11.55852
6065,-0.9092,-9.73542,1.00257,20.3781,-130.8669,-9.6054
6091,-1.30783,-9.93055,0.54887,24.34538,-121.28439,-1.06049
6118,-1.14622,-10.03111,-1.00856,9.88006,-127.08273,7.48443
6144,0.39444,-10.23102,-1.94589,-40.53494,-154.36543,14.44243
6170,1.89082,-9.81683,1.49697,-44.56326,-190.55925,6.99615
6195,2.81259,-8.7957,5.78978,-9.52911,-138.37422,-8.32366
6221,1.01454,-8.42579,6.89949,33.92789,-68.30592,-13.32854
6247,-0.20171,-9.24341,3.48775,54.19155,-54.69509,-8.93401
6273,-1.49099,-10.3627,-0.10953,50.71255,-105.35423,7.78961
6298,-1.80942,-9.79767,-1.91476,19.09636,-137.33662,31.16605
6323,-0.11911,-9.55945,0.58,23.42985,-134.1628,40.38235
6349,1.20608,-9.90781,1.55324,31.97477,-134.95625,45.5093
6375,2.46423,-9.93893,2.58634,40.76382,-102.97386,30.98295
6401,1.22643,-9.37749,-0.31424,27.3361,-69.03834,23.29252
6429,0.35374,-10.07779,-2.50374,-9.52911,-74.34839,29.88431
6457,3.03286,-11.4389,-1.49338,-41.63358,-117.68333,37.08646
6482,4.22517,-12.49235,-0.35255,-64.88795,-152.83955,31.34916
6506,5.07631,-13.35546,0.80984,-73.3108,-140.57149,11.93999
6529,4.22996,-12.02069,0.98821,-88.14233,-79.53638,-7.28607
6554,2.26432,-10.68353,-0.98342,-108.65013,-72.45631,-12.22991
6580,1.46465,-9.10934,-2.51451,-135.13936,-77.27808,-31.82218
6607,2.01771,-9.77134,-0.25678,-137.94698,-83.80884,-55.07656
6633,2.27509,-11.50115,2.01532,-113.59397,-94.12377,-66.24599
6659,0.97264,-12.48157,7.3508,-78.1936,-50.23952,-69.29774
6684,-0.27473,-11.78845,8.28454,-31.74589,-0.43488,-64.47597
6708,0.22326,-10.50157,6.1944,1.15204,5.79071,-78.33094
6734,1.10193,-9.46009,2.48817,16.16668,-54.26785,-94.56628
6760,1.91237,-10.58297,-2.66894,15.25115,-124.45822,-95.60387
6788,2.56,-10.51474,-0.73442,13.78631,-158.27167,-101.76842
6814,2.92152,-10.34355,1.17136,14.45769,-168.70868,-108.23814
6841,2.86885,-11.36468,0.87807,12.62664,-185.85954,-108.29917
6866,0.46268,-10.75296,1.0756,14.94597,-160.83514,-87.97448
6894,-1.485,-10.00118,0.9499,25.13884,-148.32295,-70.82362
6920,-1.55922,-9.40981,-0.76195,30.50993,-141.73116,-44.33438
6946,0.17178,-8.84478,-0.75956,31.12028,-115.36398,-28.22111
6972,0.5776,-8.25581,-0.03771,34.2941,-96.93139,-19.98137
6997,-0.81463,-7.12455,-1.072,31.73063,-96.32104,-9.4223
7024,-1.43233,-7.22151,-1.37846,33.74479,-91.5603,6.44683
7049,-1.41078,-7.87273,-1.77231,34.84342,-84.72437,26.77153
7076,2.3936,-9.28052,-5.05835,23.49089,-102.36351,28.23637
7102,4.63458,-9.77134,-5.05356,35.3317,-110.78636,26.40532
7129,6.86358,-10.25377,-5.05236,41.49625,-71.47974,15.17486
7156,5.31453,-9.95928,-0.39085,33.2565,36.61344,4.06646
7183,3.57754,-8.85077,-2.33973,15.00701,64.38441,0.95367
7209,3.98694,-11.22581,-3.94026,16.41082,77.81214,-17.90618
7236,3.31537,-15.28039,2.91793,20.98845,13.29803,-27.61076
7260,0.05567,-10.24658,3.15855,54.06948,-45.29568,6.87408
7285,-2.39001,-5.12539,-3.39318,49.61392,31.05924,64.18605
7311,-5.08588,-4.84527,-3.35727,42.53384,-36.32352,91.83495
7338,-4.30896,-10.80803,2.31459,19.03533,-76.97291,107.3989
7363,-4.23474,-12.74853,2.93828,9.26971,-74.04322,118.32419
7390,-2.37684,-11.62325,2.74435,29.28922,-64.64381,80.11621
7416,0.42916,-8.30608,1.83216,91.36193,-43.83084,45.14309
7443,0.06404,-7.46333,-1.66337,54.37465,-19.4168,33.36332
7469,0.80864,-8.55388,-1.93751,12.80974,-36.14042,24.02495
7497,2.03328,-10.66557,1.68612,29.65544,-50.05642,8.58306
7522,1.11749,-9.31883,1.80702,29.83854,-27.41239,-0.20599
7549,-0.10475,-8.17919,0.94032,25.93229,-45.29568,2.54059
7575,-0.94631,-8.68556,0.9068,24.10124,-60.6155,7.54547
7603,-0.82181,-9.56903,1.84413,29.5944,-32.66142,8.39996
7629,-0.59675,-10.21666,2.98737,49.36977,3.22723,6.99615
7656,-0.53451,-10.12568,2.86167,64.99476,18.3029,12.1231
7682,-0.58,-9.40502,2.12306,81.047,-3.12042,17.73833
7708,-1.09355,-9.68036,2.03687,107.17003,-27.5955,25.97807
7734,-0.63746,-10.87746,-1.5293,109.7335,7.80486,29.51811
7757,1.75435,-10.82239,-7.87513,-15.69365,102.34825,20.3018
7781,2.90237,-10.56382,-2.13742,-27.71757,35.02652,9.74273
7805,3.58472,-10.22983,0.48782,-27.04618,-17.52471,-6.85882
7832,6.51163,-10.87506,0.41001,-54.0237,-30.58622,-45.98233
7858,6.20398,-12.68987,1.45268,-59.5779,-39.13113,-73.7533
7884,3.9223,-13.16272,-0.71766,-95.95482,-4.40216,-93.46764
7911,-1.41797,-11.96682,-5.81851,-173.65251,14.45769,-102.50084
7937,-1.93272,-12.84549,1.1558,-184.51677,82.57288,-123.68003
7964,-3.78104,-14.06414,5.05236,-115.24191,169.85309,-106.65122
7990,-6.13215,-15.43243,4.83928,-80.87915,176.68901,-75.27918
8016,-4.98174,-14.1647,-2.70365,-73.73804,65.84925,-43.05264
8042,-2.24636,-12.44805,-3.42431,-56.52614,-20.6375,-16.99065
8068,1.26474,-9.68275,0.2053,-36.99491,-37.36112,-56.3583
8093,7.1856,-7.44058,0.48542,-60.85963,-4.52423,-113.79233
8120,3.35368,-7.68479,1.85012,-41.02322,-36.07938,-80.22302
8145,1.30304,-7.12455,1.16657,-26.92411,-71.11353,-62.58388
8173,-0.6602,-5.97772,1.00137,-12.45879,-90.27856,-59.71523
8199,-1.92434,-5.77781,1.27192,24.65056,-94.85619,-34.99601
8225,-2.87484,-6.28538,1.42036,56.51088,-66.59693,-2.76947
8251,-2.12306,-5.92266,-0.0413,80.07043,-46.51638,22.07182
8277,-1.95906,-5.65211,-0.13467,92.33849,-10.62774,55.94631
8302,-1.85012,-5.76823,-1.21326,95.93956,-9.28497,88.60009
8329,2.77069,-12.26011,-10.3232,54.49672,-61.34792,72.54786
8355,11.50593,-17.06767,-8.26059,22.88054,-1.83868,-13.26751
8379,16.31828,-16.5984,-5.59704,-29.79276,143.18074,-73.87537
8406,11.64121,-12.37982,-5.366,-4.76837,70.42689,4.24957
8435,6.16088,-10.83197,2.13862,34.23307,-21.79716,-4.66156
8461,2.27988,-18.32462,7.08504,28.61784,-74.65357,-7.71331
8487,0.41839,-10.34953,-1.47662,40.27554,1.21307,-17.05168
8513,-3.19686,-3.32136,-11.55861,44.42593,-8.18633,-20.16448
8540,-8.28334,-5.43304,0.02574,15.49529,-0.1297,47.27932
8566,-6.82288,-5.68802,4.00849,-1.53351,15.8615,100.86815
8593,-7.48966,-11.92372,3.15017,-3.54767,0.9079,147.62105
8620,-4.83928,-11.83035,1.75076,8.96453,-63.60621,134.13228
8646,-1.3222,-10.56382,2.15299,84.03772,-138.61836,61.98878
8673,0.70569,-8.07864,1.57239,98.56408,-135.3835,29.21293
8699,0.87329,-8.60416,1.80104,90.99572,-43.52567,25.12358
8726,2.48219,-9.7462,2.07637,63.77406,75.67591,11.87896
8752,2.77907,-9.06265,-0.10475,32.70719,90.20226,-2.58636
8778,1.62506,-8.74183,0.36571,34.41617,61.69887,-0.51117
8803,0.7835,-9.34277,-0.14904,31.54752,-1.47247,10.0479
8829,0.63626,-9.93893,1.4036,34.96549,-21.73613,10.47515
8854,0.71407,-9.69592,2.28467,48.33218,-3.12042,7.36236
8879,0.70449,-9.38108,2.37325,57.42641,29.28922,4.61578
8904,0.167,-9.20152,2.31579,75.43177,46.86733,10.65826
8929,-0.95948,-10.19631,0.76195,89.59191,37.40689,21.40044
8956,-0.47944,-10.45368,-0.98102,49.98013,72.38001,26.58842
8981,0.96067,-10.82359,-4.38558,-22.46855,77.44592,19.63042
9008,2.94427,-10.05265,0.5357,-22.71269,2.49481,14.68657
9034,4.51606,-10.06941,2.16615,-10.01739,-6.96563,-3.50189
9061,6.41586,-10.57459,2.15059,-24.05546,13.84734,-45.2499
9087,4.98652,-13.93126,-1.1151,-50.11745,31.30338,-78.20886
9113,1.05046,-13.72057,-8.22947,-151.74092,52.78774,-92.49108
9138,-0.50458,-12.3858,-9.06385,-188.78923,5.66864,-110.31333
9163,-1.10073,-11.54783,-0.89962,-187.62956,86.54015,-119.59067
9188,-4.48614,-14.65072,4.90991,-162.97137,149.34528,-110.80162
9215,-6.28418,-16.35539,5.08708,-101.02074,188.28569,-70.39637
9242,-7.17363,-16.11956,2.26432,-67.39039,60.78334,-38.90226
9269,-1.09235,-11.5634,-2.89998,-72.33424,-27.16825,-11.98577
9294,4.22397,-8.71669,-0.41839,-63.36207,-57.19753,-63.3163
9321,8.18877,-6.83006,1.23481,-70.80836,-5.37872,-112.63267
9346,1.32459,-7.39988,1.92913,-49.01882,-21.30888,-74.85194
9372,0.48662,-6.54156,1.37846,-32.41727,-39.80252,-50.43789
9399,-0.4531,-5.76584,1.18573,-20.6375,-57.50271,-46.47061
9426,-3.0556,-5.36122,1.01933,5.72967,-74.65357,-23.94865
9452,-3.11545,-5.60902,1.43353,40.58072,-48.34743,8.27789
9478,-2.58035,-5.84006,0.59675,80.92493,-23.99443,48.50003
9503,-1.70168,-5.52163,0.53331,106.31554,16.77703,80.29932
9529,-1.59993,-6.57508,-3.72957,110.89317,-8.73565,111.61033
9555,-0.27952,-11.49516,-9.5403,53.21499,-58.3572,86.64697
9581,9.47326,-18.08999,-9.96048,4.26483,15.43425,-42.32022
9608,14.02344,-14.85901,-8.23905,-39.98563,116.02012,-91.75866
9634,5.04279,-9.00399,-6.48649,2.1286,26.17643,24.33012
9660,5.12778,-5.86041,0.19812,32.82926,36.24723,20.60698
9686,-0.67217,-21.00493,5.10264,43.02213,33.74479,-2.46429
9712,-2.79942,-16.17702,0.96905,34.111,48.57632,-9.17815
9740,-3.69605,-6.96413,-3.20165,41.25211,-87.28783,24.26909
9766,-4.84527,-4.35086,0.52014,4.02069,-98.64037,57.65529
9792,-4.70401,-6.56071,3.72598,-4.03595,-51.33816,98.67088
9816,-6.02321,-11.1504,5.19123,22.33122,-11.78741,138.77095
9842,-1.03011,-11.57058,3.48775,71.76966,-31.62382,100.80711
9866,1.29586,-9.93294,2.50015,116.02012,-41.87772,30.06742
9893,0.63506,-8.78253,0.17178,83.4884,-10.5667,16.94487
9917,-0.07362,-8.50121,-1.76513,29.47233,18.85222,34.95023
9943,2.12545,-9.30087,0.81582,32.64616,9.0866,30.79984
9969,2.42592,-8.80527,1.35213,44.79214,-9.28497,10.84136
9994,1.41078,-8.39467,1.52092,42.65591,9.26971,8.70513
10020,0.78111,-9.34158,1.57,42.71695,35.63688,12.3062
10044,0.80864,-9.91259,1.22763,51.75014,10.06316,15.84624
10067,0.87089,-9.8683,0.90441,64.68959,-25.52031,16.39556
10092,1.14742,-9.5379,1.4443,70.73206,-12.88604,11.0855
10115,0.63267,-9.31883,1.77949,73.29554,21.11052,12.85552
10140,-1.11031,-9.78331,0.96546,79.88734,32.76823,24.51323
10166,-0.91159,-10.39742,-0.36691,70.9762,40.94693,29.76225
10193,-0.0844,-11.09174,-2.96223,8.23211,73.35658,26.22221
10219,2.04764,-10.17835,0.20889,-17.03642,20.01189,16.8228
10245,3.31178,-10.27532,2.09672,-11.23809,3.59344,4.85992
10272,4.42748,-10.46326,3.03166,-0.06866,39.42105,-15.58684
10298,4.57472,-12.48875,-1.20009,-36.50663,47.23354,-51.96377
10324,3.11785,-13.61403,-4.03243,-93.08617,25.26091,-71.43397
10349,1.62147,-13.03104,-8.77176,-168.76971,-10.01739,-94.87145
10375,1.63225,-11.99794,-6.50564,-202.6442,-34.98075,-116.96616
10402,-1.18812,-13.35186,3.96181,-199.83658,56.51088,-128.0135
10429,-3.19207,-15.51383,6.40988,-152.47333,199.45511,-108.54332
10455,-6.00765,-17.45792,7.63331,-75.14185,223.93019,-70.2743
10481,-4.56754,-12.86584,-5.01885,-36.87284,39.05484,-41.95401
10508,-0.48662,-10.99836,-5.19123,-68.42799,-62.69069,-29.0756
10533,4.4179,-8.77295,-0.79428,-71.54078,-49.38503,-86.38757
10558,5.59106,-7.46931,1.65379,-65.92554,-32.72245,-112.81577
10583,1.31861,-7.54233,1.33656,-47.79812,-72.63941,-64.96424
10609,0.12869,-6.69239,1.24199,-46.33328,-73.24976,-47.01992
10635,-1.07919,-5.81492,1.983,-29.73173,-70.13697,-39.63467
10661,-3.95821,-5.12658,2.29185,6.21795,-52.00954,-18.69963
10687,-4.16412,-5.39593,1.26953,52.5436,-31.37967,24.14701
10714,-3.16813,-5.6976,0.68893,90.2633,-1.89972,61.86671
10741,-1.30544,-5.72274,-1.53768,115.59286,24.40642,97.51122
10766,-1.66696,-7.67042,-6.44699,83.61047,-39.00906,133.33884
10792,2.09792,-11.96083,-12.83472,5.79071,-76.24049,44.47171
10817,17.26638,-18.94233,-5.89512,-20.51543,54.25259,-88.58484
10842,10.66557,-15.67304,-6.93301,-35.04178,92.39953,-61.79042
10868,4.39276,-7.35319,-4.89076,-4.58526,80.80286,18.71489
10895,4.42389,-3.99293,2.74196,43.63247,66.82582,-5.39398
10920,-3.21721,-17.76079,3.41712,95.93956,-0.25177,6.75201
10946,-3.68647,-17.42919,-4.79738,12.13836,23.8571,12.61138
10972,-0.18854,-11.38982,-2.37206,40.27554,-129.40205,23.53666
10999,-3.99652,-7.31488,0.71048,10.18523,-59.21169,53.93215
11025,-4.11384,-7.79851,2.41994,2.3117,-45.66189,80.23828
11052,-4.12461,-8.99083,2.91434,5.54657,-37.72733,96.65672
11078,-2.23319,-9.39904,2.65098,19.52361,-47.92019,85.36523
11104,-0.22565,-9.07462,3.71161,60.66127,-40.65701,35.31644
11129,-0.24361,-9.09019,3.24714,86.78429,-35.40799,21.40044
11155,-0.4124,-9.26855,1.43712,88.92052,-2.93731,26.95463
11180,0.75357,-9.38228,0.88526,80.07043,45.09732,27.93119
11205,1.73999,-9.26855,-0.09517,59.74574,55.41225,20.48491
11230,1.49099,-9.39664,-0.5369,45.5856,44.05972,23.65874
11258,1.66936,-9.25179,-0.03172,41.61832,27.82438,19.44731
11285,1.92195,-9.68874,-0.17178,36.24723,-2.388,17.00591
11311,1.79625,-9.68395,-0.16101,35.75895,-33.63797,16.39556
11336,0.9906,-9.22666,1.01813,32.95133,-27.10722,12.18413
11363,0.2077,-9.28771,1.74477,40.45865,4.57,13.71001
11389,-0.33698,-9.51875,2.20207,54.98501,22.69743,20.05766
11415,-0.1239,-10.18314,0.61232,61.5768,9.63592,24.8184
11441,0.82899,-10.59015,-0.13108,47.05044,16.83806,26.10014
11468,2.22361,-10.06223,-1.39522,-8.36944,41.80142,11.14654
11494,2.98617,-10.81521,0.22924,-12.70293,-14.9002,1.50299
11520,2.8473,-11.0654,1.70886,-0.43488,-3.24249,1.80817
11545,3.4698,-11.02709,1.47064,-18.74541,41.67935,-20.22551
11573,2.40797,-12.23856,-3.44705,-65.3152,51.13979,-48.5458
11599,1.78787,-11.71423,-7.90625,-145.51534,31.73063,-68.74842
11626,3.62781,-10.31123,-6.32249,-183.23503,-56.22097,-101.34117
11652,0.4543,-12.46601,3.25073,-181.77019,-1.71661,-131.73666
11677,-2.44628,-15.67663,6.0292,-156.80682,134.0865,-115.86753
11701,-4.81534,-18.20731,7.9266,-117.56126,224.90675,-80.7113
11725,-5.89632,-17.16942,6.12736,-44.38015,151.48152,-53.73378
11752,-0.38367,-11.45087,-5.67605,-54.75612,-35.40799,-37.31534
11778,3.46142,-9.44453,-1.65858,-51.70437,-91.43823,-52.75723
11804,7.29094,-7.79253,0.8661,-54.57302,-70.38111,-99.87633
11830,6.65049,-7.44417,1.56282,-43.89188,-77.94946,-96.94665
11856,1.68851,-7.13771,1.97342,-21.00371,-98.33519,-64.537
11882,-0.1646,-6.92583,2.06919,-11.36016,-95.34447,-53.48965
11908,-2.1051,-6.71514,1.78069,5.66864,-90.21752,-42.93057
11933,-4.40354,-6.76661,0.95948,32.64616,-77.88843,-25.04728
11959,-4.4993,-6.7319,0.58718,73.35658,-52.68093,21.3394
11984,-3.23876,-6.23989,0.36811,93.68126,-7.75909,53.93215
12010,-1.91476,-6.26503,-2.7264,95.45129,17.38738,90.06493
12036,-1.04926,-8.05709,-5.99329,79.64319,-30.09794,96.04637
12062,3.5907,-11.6017,-13.9995,-2.20489,-55.12233,41.96927
12088,12.41573,-15.91127,-6.54754,-0.61798,97.16027,-60.99696
12115,10.25736,-12.86943,-4.41072,-3.54767,121.69637,-30.1132
12142,7.15328,-7.13652,-4.51127,17.32634,26.2985,-0.45013
12168,7.45854,-5.69521,-1.2384,18.42497,-14.83916,-34.38565
12194,-0.49859,-17.15505,8.57783,69.5724,-41.69461,15.66313
12220,2.56239,-19.41518,-0.06644,13.54216,102.10411,2.96783
12245,6.16806,-13.94084,-9.79887,42.22866,-105.59837,-27.97697
12270,-7.98406,-6.50924,0.2891,2.00653,-50.11745,35.49955
12296,-6.74626,-5.9035,4.0049,4.08172,-33.02763,82.55762
12322,-5.83886,-6.66486,3.45423,-6.84356,-25.76445,109.04685
12347,-4.47416,-10.41298,1.7735,-12.825,-80.2688,114.72312
12373,-2.03088,-10.61649,3.47339,36.18619,-133.00314,87.9287
12400,-0.1227,-9.81443,4.22756,111.01524,-124.70235,35.13334
12426,0.25917,-9.17518,1.91117,91.484,-48.65261,19.69145
12453,1.60352,-9.8707,0.29628,62.7975,67.80238,19.81352
12479,2.16615,-9.73183,-0.47585,48.57632,70.18275,10.78033
12504,1.51014,-9.20032,-1.02651,39.60416,28.3737,7.4234
12530,-0.00419,-9.21349,0.36212,34.53825,18.3029,8.58306
12557,0.02574,-9.44094,0.43155,31.18131,-9.52911,17.92143
12582,0.15383,-9.65043,0.86251,38.32242,-27.47343,21.46147
12609,0.80864,-9.54867,1.70168,49.43081,-16.79228,14.5645
12634,0.40881,-9.51157,1.92793,51.44497,18.05876,17.73833
12661,0.1251,-9.4553,1.94589,59.19643,24.71159,21.3394
12688,-0.44233,-9.61332,0.95828,79.27698,-0.98419,30.00639
12713,0.06404,-10.21785,-0.18735,79.64319,11.03973,31.53226
12740,1.58676,-10.75176,-2.88322,-3.54767,57.12123,22.68217
12767,1.90399,-10.8583,1.00616,-12.09258,-15.14434,19.93559
12792,2.86047,-10.44171,2.69767,1.51825,-0.37384,13.03863
12816,3.47698,-9.84675,2.57556,-5.50079,42.04556,-7.77435
12843,3.85646,-10.2394,1.11749,-30.09794,29.89957,-31.70011
12868,2.44628,-12.37862,-1.27671,-56.83132,3.59344,-44.09024
12896,1.9423,-12.47798,-4.048,-113.59397,9.14764,-65.14735
12922,0.71168,-12.0566,-5.8652,-169.62419,-29.73173,-87.97448
12947,-0.77512,-10.31721,1.57838,-187.14128,14.94597,-104.75914
12974,-2.6414,-12.13561,4.89076,-159.3703,139.94588,-96.51939
13001,-4.3365,-14.6591,5.57191,-114.99778,152.09187,-63.74355
13026,-2.98856,-12.27208,2.39241,-73.24976,33.98893,-45.61612
13052,-0.17777,-10.67634,-0.85653,-60.6155,-19.72197,-34.6298
13076,2.13264,-10.49438,-1.19411,-48.89676,-36.93387,-46.47061
13102,4.80576,-9.581,0.03412,-33.27176,-54.63406,-79.91785
13129,5.3265,-8.5886,1.17735,-19.72197,-68.12281,-102.31773
13154,3.73914,-8.38509,1.50895,1.94549,-106.94115,-89.13416
13182,1.63943,-8.48086,1.63464,7.43865,-95.77172,-67.16151
13208,-1.63344,-8.69873,4.37002,35.63688,-63.72829,-49.94961
13235,-2.54324,-7.81647,3.386,63.59095,-61.04274,-38.96329
13261,-2.6821,-6.53557,0.39325,64.44545,-121.16232,-15.83098
13288,-2.52648,-6.73549,-0.49261,73.0514,-125.80099,23.71977
13313,-2.48817,-8.03314,-1.54965,69.5724,-97.23656,71.7544
13339,-2.36368,-8.73225,-4.77224,32.76823,-140.57149,92.93359
13366,4.11264,-11.69747,-7.15926,2.3117,-155.34198,56.55666
13392,9.04589,-14.30715,-8.7143,-19.11162,-105.84251,-19.43205
13418,8.6305,-15.31631,-5.30376,10.91765,-36.44559,-16.44133
13445,3.57394,-9.02554,-0.44353,27.70231,6.21795,2.96783
13470,1.92673,-8.31806,1.70288,12.3825,10.61248,-11.68059
13497,2.41515,-8.65444,6.18362,27.09196,-22.40751,-22.05656
13523,0.32382,-10.28968,5.00927,58.46401,46.50113,1.19781
13548,1.82019,-13.49312,-12.41932,16.96013,-35.34696,19.20317
13574,-2.05841,-8.31207,-5.1601,-8.73565,-198.43277,45.3262
13600,-1.01454,-6.99646,4.64056,18.85222,-157.47823,45.81448
13626,-2.0225,-10.04906,3.30939,21.90398,-120.73508,55.70217
13653,-0.83378,-11.29165,2.23559,39.90933,-114.02122,46.79104
13678,0.14425,-11.17793,0.30227,24.65056,-95.40551,44.2886
13705,2.30382,-8.64845,-1.18094,2.25067,-134.40695,28.2974
13732,2.98018,-7.82485,1.09116,7.13348,-173.04218,7.66754
13758,2.9323,-8.25341,3.51648,26.78679,-164.37518,-8.50677
13784,0.47465,-9.36073,2.44268,21.78191,-119.88058,-12.9013
13810,-0.65182,-10.74099,1.64542,11.46697,-53.29128,-10.58196
13836,-1.58795,-10.69789,-0.13467,10.3073,-76.48462,-8.99505
13862,-2.25833,-9.56783,-0.48423,12.07732,-112.80051,2.35748
13888,-1.50895,-9.91259,0.06404,15.19011,-124.82442,13.95415
13913,-0.50458,-10.19152,-0.21488,15.37322,-135.07832,18.0435
13939,0.26396,-10.12687,-0.62788,10.36834,-140.02217,17.92143
13966,1.13904,-9.79647,1.36051,13.35906,-138.43526,15.78521
13992,1.11271,-9.43974,1.59155,16.22771,-139.53389,9.19341
14018,0.76195,-9.17877,2.02729,18.85222,-120.79612,4.06646
14044,-0.8278,-9.55227,2.13024,22.02604,-94.18481,5.10406
14070,-1.38684,-9.87189,1.47902,27.76335,-94.97826,10.47515
14097,-1.51134,-9.98921,0.42437,25.62712,-111.57981,18.47075
14123,-0.58,-9.81443,0.03292,25.32194,-114.6926,23.41459
14148,-0.26875,-9.86232,0.42078,27.09196,-92.35375,26.58842
14174,0.04848,-9.91259,0.5764,31.12028,-70.44215,26.89359
14202,0.09637,-9.64205,-0.89004,26.60368,-69.70972,32.56986
14228,0.78949,-9.55346,-1.15341,12.19939,-80.39087,32.50882
14255,1.5676,-9.55107,-0.53929,7.6828,-82.40503,27.50395
14281,2.15777,-10.65121,0.92476,9.81902,-64.03346,19.56938
14306,1.96025,-10.27292,0.25917,-0.25177,-34.24833,12.79449
14332,1.99377,-11.18152,-1.8166,-43.28152,-22.0413,14.25933
14358,2.56718,-12.37383,-4.14137,-104.49973,-64.15553,8.15582
14384,5.27622,-13.35905,-1.98419,-129.58516,-136.36006,-15.70891
14410,4.42867,-11.49755,-0.55964,-132.20967,-108.9553,-39.57364
14438,-0.93553,-10.22983,1.68492,-146.49188,-28.93827,-48.48477
14464,-1.82977,-10.49917,2.45226,-132.33174,-15.20537,-45.49405
14489,-0.39205,-11.73338,2.32058,-99.98315,-70.74732,-53.91689
14516,0.34895,-12.94724,5.22355,-55.0613,-72.57838,-57.15175
14542,4.56514,-9.53431,8.00441,-7.51495,-47.30984,-75.76746
14568,5.51085,-8.69873,6.33326,29.96061,-11.29912,-113.36509
14594,5.44262,-9.2901,2.05482,22.02604,-7.14874,-126.48763
14621,1.90159,-12.50791,-3.63141,28.73991,-153.633,-114.15855
14648,0.67576,-12.48277,-1.04806,28.19059,-278.20566,-101.34117
14674,-0.62668,-11.76092,2.1063,3.3493,-220.64955,-83.57996
14702,-1.04926,-9.20032,2.3541,-3.4256,-169.86835,-79.85681
14728,-1.72921,-9.20152,1.49458,10.24627,-114.6926,-60.99696
14755,-1.26833,-9.31763,1.42874,26.60368,-66.719,-53.18447
14781,-0.07362,-9.16321,-0.48183,36.3693,-55.61061,-47.63027
14808,-0.31065,-8.97766,-1.43592,31.66959,-89.66821,-32.49356
14835,-0.42318,-8.47488,-1.74837,23.97917,-106.75803,-21.69035
14862,-0.69372,-7.03237,-1.34255,29.10612,-85.70093,-1.30463
14888,-0.26037,-6.81569,-1.72562,35.88102,-55.97683,17.55522
14915,0.53331,-7.62972,-2.75154,35.3317,-42.366,33.8516
14941,5.65211,-10.61888,-4.8309,37.04068,-64.39967,35.43851
14967,7.20475,-11.18751,-3.89237,45.09732,-43.46463,28.1143
14993,7.3891,-8.9597,-3.96181,29.71647,-38.64285,22.68217
15019,6.67324,-7.24785,-0.89124,2.18963,-9.22393,8.6441
