timestamp,ax,ay,az,wx,wy,wz
24,1.29945,1.4024,9.31404,-38.70389,-45.92892,-102.27196
48,2.52768,1.42275,9.09497,-77.21704,51.11691,-111.9155
73,3.3034,1.24439,10.53868,-58.84547,40.06955,-114.29588
96,2.96462,1.55803,11.75493,-15.32744,-6.50024,-119.23972
119,1.66457,0.67816,11.08336,-3.48663,-13.45824,-101.60057
142,0.94751,-0.50697,9.07103,-27.5955,19.80589,-77.91895
166,1.157,-1.01933,7.99843,-71.11353,25.7263,-62.7212
191,0.98581,2.52888,10.90619,-68.12281,-17.18138,-83.90039
219,1.13186,1.60112,10.39862,-44.25809,-75.65302,-90.43114
244,0.60992,0.44113,11.01153,-22.71269,-41.16818,-77.55274
268,0.97624,-0.59197,9.50079,-25.88652,-19.43968,-85.85351
295,2.3553,1.06602,8.04152,22.27019,-128.32632,-93.11669
320,2.71921,0.66978,9.4553,45.09732,-133.94156,-103.67577
345,4.0049,1.36051,7.59022,4.14276,-74.18818,-147.25484
368,3.386,0.44712,5.59704,-45.29568,-61.00459,-139.80855
392,2.61986,-0.70689,3.799,-96.56517,-118.13346,-131.20261
417,3.8804,-1.17017,7.91942,-125.86203,-87.37176,-130.04294
443,4.34129,-1.65379,9.59297,-112.12913,-86.51727,-139.07614
468,2.76351,-2.28706,9.76774,-93.20824,-91.76629,-108.19236
494,1.01933,-2.36966,11.72381,-63.0569,-92.19353,-80.7876
518,2.57077,-0.64464,9.80845,-64.82692,-116.66862,-81.76416
543,3.77266,0.27833,9.64205,-79.29224,-99.63982,-96.41259
567,5.038,0.7033,11.23539,-88.20336,-47.33273,-108.49754
591,2.52528,-0.4136,12.41932,-82.71021,5.46264,-96.77879
617,2.26432,0.04848,11.19828,-70.80836,13.76342,-85.06005
642,3.23277,0.9918,10.25377,-58.05202,-7.41577,-95.43603
669,3.98096,1.50775,10.57698,-41.3284,-8.45336,-102.02782
693,1.65858,-0.05088,9.97963,-34.43143,1.06811,-80.48242
717,2.32178,0.2053,9.80485,-28.38896,8.57543,-67.54298
742,3.35847,0.89004,9.83957,-26.98515,11.26098,-66.81056
771,3.12383,0.50697,9.00998,-23.32304,-7.2937,-60.40187
796,2.95744,0.02095,9.17398,-14.83916,-25.84837,-46.79104
822,3.1789,0.11672,8.99442,-23.99443,-29.87669,-35.25541
849,3.36445,0.18615,8.54431,-31.13554,-39.82541,-30.61674
875,2.87843,-0.89962,9.4158,-23.62822,-57.76973,-11.20757
902,1.94948,-1.6502,9.21588,-15.38848,-83.9538,25.5966
928,3.65176,-0.57281,7.53156,-20.45439,-110.74821,34.38565
955,3.20404,-1.30664,7.45495,-14.65606,-167.63293,45.98233
979,1.74238,-2.89279,8.342,16.8991,-220.24519,87.42516
1005,2.25713,-3.17531,8.71549,48.21011,-235.01569,115.07407
1031,6.58824,-1.31142,7.89668,59.37953,-205.35263,117.88169
1059,6.79295,-1.86089,6.94259,60.66127,-202.60605,127.58627
1084,6.86956,-2.75393,7.60937,79.88734,-180.75548,138.81673
1111,10.80324,-1.96624,8.79809,109.48936,-123.0773,124.29037
1137,10.73859,-2.02849,6.74626,135.24617,-133.88052,114.7689
1163,10.5279,-2.98018,5.61141,148.97908,-125.70181,113.24302
1187,14.26046,-1.08038,4.41192,142.14314,-68.63398,75.88953
1212,13.9971,-0.04848,-6.05913,54.00844,-99.945,34.32462
1239,10.18434,-1.29466,-0.35015,29.7775,-35.85813,54.46621
1266,4.4586,-2.94547,-1.00377,-39.98563,11.44408,97.00768
1293,7.65606,-2.07637,4.18447,-14.53399,-0.33569,97.55699
1320,6.73668,-2.26432,2.71562,-13.00811,11.13891,112.93784
1347,1.78907,-4.40234,-2.40438,-68.7942,57.22042,183.79961
1372,5.76225,-3.65654,1.072,-46.8826,-14.61791,199.54666
1397,7.56867,-3.83012,0.92476,-53.90163,-27.55735,205.89432
1422,9.77134,-5.39833,-0.73562,-110.84739,-28.22874,202.0491
1450,13.49911,-3.95103,3.23038,-87.59302,-54.65694,148.03302
1476,11.70705,-4.64176,3.31298,-26.98515,-41.10715,77.96472
1503,8.15884,-7.61895,-0.84216,-59.15065,-53.3752,75.64539
1527,7.87393,-11.62445,-0.69133,-131.35519,1.98364,64.84218
1550,12.36665,-12.6767,3.55958,-99.98315,46.47823,37.43741
1573,11.63043,-13.77564,2.77907,-58.78444,71.99091,-6.87408
1596,10.74218,-14.16709,1.43353,-79.71948,43.12131,-28.1143
1623,1.38684,-12.08413,-13.03224,-177.25359,-119.04898,27.73283
1650,-1.28988,-7.05392,0.50697,-90.03442,-209.44199,93.16247
1677,-1.05764,-5.69162,3.74752,21.04948,-224.27351,115.37924
1703,-0.24361,-8.3839,-10.23701,-34.49247,-356.23141,123.619
1730,-5.50487,-21.82016,-9.8683,-127.44894,-386.74896,258.26242
1757,-5.63894,-25.74665,0.27593,-109.80979,-137.11537,321.61688
1783,6.31291,-14.47115,6.66127,-6.96563,111.66373,1.54877
1808,7.55191,-3.02687,-3.59908,-21.79716,83.46552,-117.10349
1835,-1.15341,-6.6912,-4.79738,-24.17753,5.46264,-65.16261
1862,-3.78823,-7.06708,-0.69133,50.2853,-47.39376,15.28167
1886,-1.64781,-4.46339,0.54528,124.25986,-63.56807,47.26406
1912,-1.53768,-5.43185,0.17538,161.12506,-21.82005,62.21767
1937,-1.00736,-6.88153,-1.94708,90.20226,155.48695,60.87489
1964,2.58753,-19.91796,-22.13021,-52.31472,126.00699,9.23919
1990,2.11228,-19.45708,-13.73374,-25.15409,-138.58022,-31.7764
2016,-1.37367,-11.24497,-3.10229,6.03485,-50.75069,-11.02447
2042,-4.77344,-6.48529,3.81217,26.1154,69.30537,25.10832
2069,-5.86759,-8.15764,-1.45388,30.38786,23.59007,44.21231
2095,-3.18848,-11.13244,-3.5907,64.44545,-66.37568,-5.04303
2122,-0.72484,-12.95323,3.77147,102.22618,-26.03148,-33.54642
2148,-2.0213,-10.35911,1.75675,92.21642,-50.56759,-5.77545
2176,-2.13503,-8.31686,1.25755,59.25747,-38.90989,29.50285
2202,0.91638,-5.9059,3.87202,36.97965,10.46752,8.32366
2228,0.9499,-7.39868,5.12299,50.83462,35.00364,-19.0811
2255,0.07003,-9.67437,4.13658,68.96204,26.15355,-24.6353
2284,-0.18495,-9.98562,2.99455,100.5172,113.06754,-25.856
2312,-0.65541,-9.89105,-1.97581,80.61975,203.64365,-20.72905
2340,-1.32818,-9.97843,-5.18405,29.65544,139.12953,-6.87408
2367,-1.12108,-9.9114,-1.34853,19.03533,95.36736,12.22991
2393,0.56683,-9.93055,0.08799,25.0778,73.45576,14.42717
2420,1.5676,-9.63247,0.11193,31.48649,38.84885,8.20159
2447,2.23199,-9.15483,0.76076,54.06948,34.88157,7.95745
2473,2.12665,-9.39305,0.2484,65.29994,31.09739,4.9057
2501,-0.10116,-9.8288,-0.7021,62.7975,32.56223,-3.57818
2527,-0.97624,-10.18793,-1.49338,38.20035,41.53439,9.66644
2554,-0.13108,-10.6536,-1.74837,-4.28009,17.85277,21.01897
2581,2.48698,-11.19708,2.57915,10.3073,8.94164,11.61956
2608,2.07517,-11.34552,1.73999,31.73063,54.4128,-6.87408
2634,1.91117,-12.73775,-1.898,-3.6087,94.39079,-18.16558
2660,1.41318,-14.6567,-3.76069,-50.05642,66.74189,-21.88872
2686,1.33058,-13.10047,-3.97737,-82.95435,39.33713,-29.94535
2713,1.56641,-11.43531,-4.22636,-151.74092,13.2141,-36.1099
2739,-0.40282,-8.81246,-2.83533,-200.14175,-49.16378,-41.11478
2767,-3.02567,-10.06463,3.64697,-160.77411,-75.1037,-20.05766
2793,-2.67612,-10.95407,4.84886,-117.92747,-49.04171,-13.58794
2820,-0.43634,-13.19385,-0.91399,-112.61741,-29.99876,-15.84624
2846,0.77752,-12.51509,-2.10271,-107.36839,-18.64623,-25.67289
2872,1.32938,-10.10533,0.03412,-76.60669,-4.66919,-39.46683
2898,0.74879,-7.1042,0.99778,-39.43631,-51.42208,-46.05862
2924,0.04369,-6.96892,0.09517,-27.90067,-113.43375,-46.5469
2951,-0.96786,-7.63331,1.29826,-12.45879,-122.34488,-33.24125
2977,-3.20165,-6.46973,2.53007,6.58416,-93.90252,-5.3482
3008,-3.64338,-4.79379,1.49458,19.46257,-69.12227,14.36614
3034,-3.87202,-3.69485,0.58119,63.04164,-71.31953,17.66203
3061,-2.10151,-8.14807,-5.25348,101.85997,-66.49775,18.45549
3087,1.68492,-14.64832,-17.83501,-79.41431,-12.66479,-24.02495
3114,2.23678,-21.17013,-18.33659,-51.88747,-77.42303,-26.64945
3141,-1.16059,-8.31207,-1.18573,15.80046,59.84493,-25.48979
3169,-2.70246,-4.73633,-0.12749,43.57144,78.03339,-8.27789
3196,-5.09307,-5.37079,4.67647,56.44985,57.40352,45.98233
3222,-4.19165,-15.76283,-2.57317,34.72135,-12.42064,40.42813
3249,0.63985,-16.04534,5.52761,70.61,52.45968,-7.72857
3276,-1.83097,-8.62092,1.84773,86.17395,27.37425,0.26703
3302,-1.89082,-7.1018,1.71964,89.10363,10.46752,16.50237
3328,-1.1989,-6.15609,2.4774,78.42249,37.99435,10.58196
3355,-0.4938,-6.60979,2.42473,62.91957,53.80245,-1.07574
3382,0.61112,-10.57698,1.88962,71.46449,104.76677,-6.08062
3408,1.25755,-10.28489,2.44987,104.36241,122.83317,-9.68169
3436,0.66619,-9.26975,-1.05285,87.39465,72.23505,-4.98199
3462,-0.11193,-8.81365,-0.86491,61.63783,51.72726,20.34758
3488,0.10235,-8.60656,0.18256,59.62367,46.4172,26.8173
3516,1.25037,-10.53628,0.55964,70.54896,35.18674,14.67131
3542,1.65379,-11.00914,0.3322,75.73694,71.07539,4.11224
3569,1.45627,-10.90499,-1.13066,51.506,93.53631,-3.82232
3594,-1.50655,-9.91858,-2.67612,30.8151,68.51191,3.44085
3620,-1.70168,-9.83837,-2.49296,13.54216,69.54951,19.06584
3646,0.56443,-10.56142,-2.17453,-17.40264,33.11155,21.32414
3672,2.25115,-11.50953,-0.25558,-11.17705,-10.04028,18.33342
3698,2.8509,-10.50157,0.88166,14.70183,10.22338,0.20599
3725,2.26192,-11.76331,-2.57676,-27.65653,44.70822,-21.40044
3753,2.04764,-13.93844,-3.69605,-80.75708,67.41328,-36.47611
3780,2.41036,-11.98597,-4.90632,-158.75995,78.76581,-57.41115
3807,0.77033,-10.37587,-8.4234,-242.8053,21.63695,-53.74904
3832,-1.54366,-11.40179,5.81133,-158.57684,-145.90443,-33.60746
3857,-1.23361,-13.22497,4.85484,-107.91771,-177.64268,-32.14261
3884,0.31304,-16.11836,1.31621,-118.11057,-89.20282,-27.44291
3911,1.62387,-16.1028,-1.20608,-128.2424,-4.05884,-21.27836
3938,0.58598,-7.98167,1.51733,-87.89819,-15.10619,-30.79984
3964,1.11989,-6.09025,1.30424,-61.10378,-42.7551,-50.27004
3990,0.44113,-5.60423,0.11313,-42.5491,-104.09538,-54.11525
4018,-1.47902,-6.08067,1.57718,-12.825,-153.47278,-38.00199
4045,-1.99856,-5.64852,3.45663,16.22771,-125.1525,-20.48491
4071,-3.39677,-5.43065,3.89118,38.38345,-75.65302,13.20647
4096,-4.26467,-4.32453,1.72682,59.80678,-50.68966,31.57804
4123,-3.44825,-6.54395,-2.0656,61.33265,-76.08027,28.70939
4149,0.40163,-11.87105,-12.63121,-68.55006,-80.77997,1.4267
4176,2.34093,-20.14302,-9.92217,-55.30544,-87.73798,-12.48931
4203,-1.3222,-10.35672,-2.21883,2.86102,29.99876,-26.28324
4229,-3.34769,-6.15609,-0.83258,49.73598,115.02068,-16.27349
4256,-7.59261,-7.4753,1.0325,73.66174,42.87716,38.65811
4283,-5.17806,-11.92731,-2.13862,71.03724,-17.7307,21.38518
4309,-0.40522,-15.95436,2.94307,79.39905,17.97484,7.71331
4335,-1.39762,-10.12687,1.09355,60.29506,-11.44408,23.64348
4362,-0.93553,-7.48966,1.27072,52.3605,-17.60863,31.88322
4389,-0.4148,-6.09863,1.47303,50.04116,5.34057,24.43693
4418,1.35811,-8.09659,4.29221,104.05724,65.21602,-7.91168
4445,1.5688,-10.43214,1.97581,121.51328,68.02363,-26.46635
4470,0.2484,-9.79288,-0.58,96.12267,58.31905,-26.10014
4496,-0.37529,-9.29369,-1.12468,68.77894,48.30929,-12.48931
4522,-1.12707,-9.33679,-1.06243,51.62807,70.09882,5.76019
4548,-1.03729,-9.48762,-1.26833,52.3605,60.27217,13.93889
4574,0.08559,-10.02033,-1.55922,53.7643,8.94164,22.1176
4600,1.12468,-10.02512,-0.56324,44.18179,-6.68334,15.76995
4627,1.11031,-10.0323,0.42557,50.1022,0.27466,15.89202
4654,0.35135,-9.98681,0.89364,67.4972,35.55295,3.19671
4681,-0.84216,-10.34714,-1.29945,35.14859,70.404,8.93401
4705,-0.72604,-10.20828,-3.23517,-18.5623,51.66622,19.73723
4731,1.82977,-11.0666,1.5257,-6.11114,-5.0354,23.88762
4756,2.72041,-11.26532,0.97863,22.51433,-12.35961,7.77435
4784,2.84132,-12.40256,-2.24157,-24.84892,29.26634,-19.02007
4809,1.60352,-13.83908,-3.66133,-63.60621,21.45384,-34.27884
4836,1.52451,-13.5446,-4.31615,-117.92747,25.17698,-47.34036
4862,1.1546,-11.17314,-4.34607,-196.29655,-17.18138,-48.86624
4890,-3.19806,-10.39503,-0.06644,-203.25455,-98.48016,-30.31156
4916,-2.24397,-11.37904,4.03363,-151.92403,-106.10954,-25.97807
4942,-1.42874,-13.05618,3.19925,-103.95042,-42.9382,-36.41507
4969,0.54648,-13.30637,0.09756,-72.94459,-27.25218,-40.68753
4996,0.54408,-10.33756,-1.04686,-78.1936,-18.7683,-47.03518
5023,1.21446,-8.00322,0.44113,-64.15553,-50.9338,-63.20949
5051,-0.04489,-7.04075,0.63506,-52.43679,-94.2077,-60.03566
5076,-0.48423,-7.13771,0.96905,-29.24345,-148.83411,-47.03518
5104,-1.60471,-7.45854,2.18052,-0.67902,-144.68373,-26.10014
5131,-3.86484,-5.81252,3.21242,21.72087,-118.98795,-2.35748
5156,-4.14855,-4.20003,2.38642,34.59928,-67.53535,14.73235
5184,-4.26587,-3.40396,1.63943,70.54896,-51.72726,24.19279
5211,-1.33417,-10.08138,-6.69239,81.59631,-35.9802,13.26751
5237,0.68175,-18.9938,-20.35012,-86.31128,7.84301,-6.69097
5263,1.88484,-23.23633,-17.70811,-57.56374,-52.33761,-26.95463
5289,-1.23122,-6.66606,-0.75118,10.67352,68.69501,-37.02542
5314,-2.32417,-4.26587,0.64943,46.92837,66.55878,-16.45659
5340,-4.93026,-7.65366,3.42311,91.11779,-4.79126,37.0712
5367,-0.25798,-16.19258,1.06362,49.79702,33.17258,13.51165
5394,-1.29347,-14.29039,2.41994,28.98405,58.68526,-3.45611
5421,-3.00532,-10.01554,1.80104,42.04556,33.35569,21.81242
5447,-2.46902,-6.18003,1.51613,55.8395,23.71214,27.42765
5474,-1.89681,-5.96096,1.91716,83.3053,28.65598,2.34222
5500,-1.33058,-8.5455,2.50613,91.91125,28.65598,-1.62506
5528,0.51775,-10.74458,1.74837,91.42297,13.33617,-7.48443
5555,1.49697,-9.61092,2.00095,96.97717,67.16914,-11.93999
5582,1.48261,-9.15124,0.53451,71.46449,118.43864,2.46429
5608,0.50099,-9.18356,-1.04567,50.71255,115.69205,12.71819
5635,-0.12869,-9.59057,-1.0756,48.21011,46.47823,26.45109
5662,0.1251,-9.86232,-1.16777,57.60952,-6.62231,25.84074
5688,1.58676,-10.00357,-0.38008,62.7975,-3.63159,13.87786
5713,1.31382,-10.05984,-0.33459,57.91469,13.031,3.8681
5740,0.1634,-10.12687,-0.27234,56.0226,42.44992,-1.44195
5767,-2.16256,-10.40101,-2.90955,27.09196,63.56807,19.06584
5792,-0.03292,-10.62846,-2.46423,-20.69853,37.0178,34.32462
5819,2.20925,-11.13124,0.85892,-2.99835,-12.72582,24.98625
5845,3.43628,-10.96365,0.84096,20.92741,5.34057,6.85882
5872,3.24354,-12.66593,-2.21524,-12.15362,45.86789,-22.62114
5897,2.2691,-13.80317,-3.14897,-58.41823,31.89085,-40.99271
5921,0.59675,-12.8814,-4.25869,-108.40598,18.9514,-55.03078
5945,-0.84096,-10.99836,-4.15933,-159.0041,2.7771,-54.05422
5971,-2.28347,-10.09455,-3.02807,-199.77554,-32.80637,-43.86136
5997,-3.89596,-10.8176,1.31502,-162.8493,-36.71262,-26.58842
6023,-3.17651,-13.34348,2.52648,-126.47237,-14.37377,-19.20317
6049,-0.9487,-13.29799,1.16418,-94.79516,-11.50512,-18.53179
6075,1.59514,-11.0678,-1.99736,-101.38695,-34.57639,-35.13334
6102,0.89962,-9.57381,-1.48141,-97.96898,-41.7175,-38.18509
6129,1.13186,-7.36516,1.63584,-68.18385,-61.61494,-45.02102
6155,0.77991,-6.97251,0.81822,-45.66189,-108.18473,-45.02102
6181,-0.49859,-7.1006,0.87927,-27.10722,-133.20912,-30.92191
6209,-2.90955,-6.93421,2.78745,-2.69317,-100.55534,-8.21685
6235,-3.50691,-5.74309,2.72999,18.3029,-62.65254,4.23431
6262,-3.64098,-3.41353,1.41797,46.98941,-38.29953,2.52533
6288,-4.2527,-4.14376,0.84336,120.10947,-40.86301,14.73235
6315,-3.36804,-7.6812,-2.77787,140.92244,-17.42552,17.90618
6340,3.86005,-23.97494,-23.43026,-125.12962,40.13058,-32.6309
6366,2.32178,-21.18809,-8.14567,-81.91675,-48.24826,-33.48539
6392,-1.30065,-10.93492,-2.54923,-6.47735,13.51928,-21.58354
6419,-4.71718,-6.32009,-1.58197,45.03628,47.27169,20.22551
6446,-1.74118,-7.52198,4.64535,93.74229,0.03052,14.91545
6472,-0.21009,-11.6041,4.45142,77.32385,13.51928,-15.78521
6497,-0.87807,-14.43165,1.67774,46.44009,62.4084,2.09808
6523,-3.51648,-9.35474,1.60591,42.96109,69.3664,28.52629
6549,-3.17172,-7.74105,1.39283,45.64663,66.925,33.22599
6576,-2.67492,-6.80971,1.52211,59.68471,69.12227,15.28167
6603,-1.06961,-9.34517,1.27192,79.46008,68.81709,11.43645
6631,-0.19453,-10.76852,0.7859,72.86829,28.71702,10.8261
6658,1.20608,-10.76852,1.89441,96.36681,35.24778,-3.21197
6684,2.63661,-9.20152,-0.09996,90.75158,89.8742,-7.30133
6709,1.78548,-8.79091,-1.6502,57.73159,125.09146,-0.95367
6734,0.86491,-8.85795,-1.26593,49.85806,100.98259,6.1264
6761,-0.21368,-10.39862,-1.46346,45.21939,31.82981,22.54484
6787,1.11271,-9.97125,-0.33339,57.60952,-7.96508,22.60588
6814,2.06679,-9.6636,0.25079,71.64759,13.45824,4.72259
6841,0.44951,-9.8252,-1.31262,59.68471,41.16818,-8.94927
6868,-1.59633,-10.18074,-2.36128,22.69743,69.91573,7.59124
6894,-1.98539,-10.43094,-3.25073,-21.00371,44.83029,25.5966
6919,2.12785,-10.76972,1.4455,-20.75957,-5.34057,25.16935
6945,3.11306,-10.46805,2.47022,11.3449,-13.33617,12.53509
6971,3.45064,-11.41496,0.12869,3.41034,19.80589,-16.94487
6997,3.28903,-13.40693,-2.31819,-38.70389,55.38937,-38.97855
7024,1.49578,-13.28363,-4.23594,-101.08177,40.86301,-53.3218
7051,2.12426,-11.77409,-3.99054,-182.80779,47.94308,-66.74953
7077,0.44951,-10.60332,-5.82569,-215.09537,-10.89477,-53.38283
7104,-5.01286,-11.74655,2.12306,-151.37471,-85.78484,-31.65434
7131,-4.09708,-12.09012,3.53444,-101.63109,-87.98211,-27.01567
7158,-1.64063,-13.69543,2.3948,-81.00122,-39.52023,-17.73833
7184,1.54725,-10.50875,-0.58598,-99.37279,1.92261,-40.38235
7211,2.79104,-8.15405,0.28311,-72.39527,-14.73998,-71.08302
7237,1.42156,-7.35559,-0.25798,-39.43631,-74.37128,-73.03614
7264,-0.30945,-7.48248,0.13467,-11.66534,-132.72086,-49.72073
7291,-1.8178,-7.33404,1.26234,12.32146,-115.50895,-13.03863
7319,-3.44945,-5.55156,2.39241,19.88982,-47.08859,8.87298
7343,-4.19285,-4.43107,1.8178,27.94645,11.81029,23.88762
7370,-4.35924,-4.06476,0.9511,60.66127,17.54759,32.5546
7396,-3.72717,-7.98526,-0.56084,103.9962,-0.03052,55.38174
7422,-1.4467,-11.56938,-5.16489,66.21547,-13.031,42.9916
7449,2.0644,-16.34102,-12.00153,-48.89676,62.16426,2.70843
7475,3.9235,-13.43686,-7.65366,-14.83916,-10.46752,-8.58306
7502,3.62303,-10.02512,0.32741,52.90981,52.45968,-39.40579
7529,1.24917,-7.97329,-4.20961,13.29803,47.4548,-30.49467
7556,-3.4255,-11.561,1.7352,21.47673,71.50263,21.08
7581,-4.9949,-15.89211,1.65739,60.5392,-0.09155,52.75723
7607,-3.98216,-16.20575,-0.0401,64.62856,-45.74582,-21.70561
7633,-1.99018,-10.06103,1.55803,66.70374,18.89037,-56.00734
7660,-4.78182,-5.61261,1.52211,68.3517,59.66182,-16.70073
7687,-6.28298,-4.80696,0.85054,43.99868,125.70181,27.24455
7713,-5.74309,-7.07546,1.92673,17.38738,211.88338,32.85978
7740,-1.61309,-11.19948,3.85885,26.96989,140.89955,26.69523
7766,-0.82061,-11.83514,3.89477,50.2853,9.55199,14.97649
7792,1.02173,-11.0642,3.84688,59.25747,-27.92356,-3.88336
7817,2.95145,-9.81563,4.05159,53.39809,34.39328,-15.6021
7844,3.68168,-9.55705,4.91111,45.95181,312.59131,-15.48003
7871,4.54479,-9.61691,1.45268,28.86198,299.83499,-20.24077
7897,2.03088,-10.66437,0.25678,32.09684,213.59236,-11.57378
7924,2.24157,-10.60811,0.4531,42.77798,212.37167,-6.87408
7950,2.03687,-10.0766,-1.12108,24.95573,181.97618,-4.43267
7976,-0.29269,-9.30686,-1.68492,10.79559,127.53287,-0.40436
8002,-0.18615,-9.32841,-1.07679,3.89862,82.79413,3.62396
8028,0.74998,-9.88865,-0.17897,2.55585,53.68038,-2.96783
8054,0.22087,-10.92654,1.67415,1.02997,50.75069,1.30463
8080,0.58,-10.88703,2.30861,-2.75421,80.16962,1.30463
8107,0.18735,-10.40939,3.18489,12.93181,166.96155,-2.47955
8133,-0.24002,-9.80845,0.33459,11.83318,203.88779,-6.99615
8157,0.64703,-10.25736,-1.0325,-8.24737,199.79843,-25.30668
8179,0.95469,-10.36031,-0.77752,-21.61406,185.57726,-21.88872
8205,0.97983,-10.54825,-0.69851,-38.82596,159.69836,-19.50835
8229,-0.25438,-10.5279,0.32741,-65.92554,170.44054,-35.68265
8252,-2.59472,-10.77211,-0.11791,-77.58326,192.108,-33.91263
8278,-4.90991,-10.64642,-2.1901,-104.56078,208.58749,-11.93999
8304,-5.9478,-9.81683,-4.50409,-130.68379,147.36926,11.37542
8330,-6.09743,-9.17877,-3.57634,-136.48213,94.57391,33.65323
8355,-5.87477,-10.49558,0.39923,-125.31271,52.33761,69.11464
8382,-5.4079,-11.974,1.80822,-105.35423,75.34785,89.37829
8405,-3.24235,-11.63402,2.95504,-68.9773,117.34,81.62683
8430,-0.42078,-8.66881,1.46585,-30.70829,114.83755,69.29774
8457,0.54887,-7.21433,0.16819,-9.46807,91.27801,54.2831
8484,1.29586,-6.90548,-0.67696,6.34002,57.7087,43.41885
8512,2.24875,-8.11575,-1.57359,19.03533,39.76437,38.84122
8540,1.76393,-8.25581,-1.50775,44.79214,26.27562,34.20255
8566,0.73801,-8.2175,-1.17974,69.45033,24.07835,28.8925
8592,-1.8585,-8.41382,-2.61746,82.69495,29.3884,25.84074
8619,-2.2691,-8.96928,-5.1218,53.33706,59.90596,10.88714
8646,-2.01053,-10.24898,-7.58304,9.14764,90.97283,6.24847
8672,-3.14658,-9.97963,-6.79295,-19.4168,109.95476,8.5678
8699,-3.75351,-9.61811,-6.07349,-48.95779,123.50455,13.87786
8724,-4.25749,-9.04709,-5.9442,-52.61989,87.79901,21.62932
8750,-2.61028,-7.76499,-3.37163,-22.52958,49.34689,29.19767
8776,-1.16418,-7.27179,-3.2603,4.81414,47.75998,19.67619
8803,-1.14503,-7.1042,-3.08433,33.62271,28.22874,6.49261
8828,-2.67732,-6.41347,0.03292,79.46008,-19.07347,8.20159
8855,-4.86083,-9.74979,-1.40719,89.16467,4.60815,18.21135
8881,-5.54557,-15.15949,-2.64619,85.68567,65.46016,-12.91656
8906,0.34536,-16.03098,0.64464,116.38633,166.22913,-66.56641
8931,-0.92356,-8.06068,-1.72323,99.2965,117.58414,-52.71145
8957,-2.64978,-7.33763,-2.40438,55.8395,50.62862,-16.76177
8984,-3.7583,-7.61895,-0.30347,51.13979,57.15938,0.32806
9011,-2.89758,-9.71387,1.99617,55.41225,76.75165,5.82122
9037,-0.30706,-10.19391,2.29305,53.70327,54.16866,-2.72369
9064,1.08397,-10.03111,2.63901,60.23402,-11.26098,-14.80864
9090,2.70246,-9.03272,3.56197,75.67591,-27.55735,-23.96391
9117,2.23319,-10.31123,2.60908,71.89173,45.13546,-31.5933
9144,2.49177,-11.3563,2.74316,72.80726,230.25496,-46.85207
9171,1.12228,-10.29686,-2.90117,45.46353,264.00739,-40.6265
9196,-0.15981,-9.87548,-3.5931,12.07732,104.15642,-21.3394
9223,-1.47423,-9.35474,-2.3517,9.88006,28.65598,-5.22613
9250,-1.49338,-10.08138,0.6195,21.65983,-3.08227,5.45501
9275,0.02693,-9.88386,1.48022,26.17643,0.76294,1.06049
9301,1.06243,-9.22306,2.26791,36.43033,34.63742,-6.75201
9327,0.54887,-9.84077,1.87167,46.19595,66.86397,-2.66266
9353,0.2879,-10.71345,1.18214,51.56704,84.1369,-2.60162
9379,-0.14305,-11.70705,0.06045,43.38833,118.1945,9.36126
9405,0.33818,-11.39221,-2.17094,-8.00323,115.75309,14.24407
9431,0.76315,-9.86351,-1.3234,-20.8206,70.09882,14.36614
9457,1.46824,-10.3208,-0.01616,-3.48663,30.18186,8.01849
9483,2.13742,-10.80324,0.06165,3.53241,30.426,-9.25445
9511,2.02609,-12.93288,-1.84294,-30.28104,26.70286,-24.94047
9538,1.35213,-12.85866,-1.70288,-62.99586,26.15355,-33.8516
9563,0.76794,-12.36066,-1.86329,-110.72533,42.51096,-34.27884
9588,-2.25235,-9.47326,-3.76907,-176.15497,46.96652,-20.3018
9614,-4.07792,-9.76415,-3.53085,-219.30679,36.65158,-2.66266
9641,-5.06553,-10.47762,1.6119,-155.89131,28.71702,-8.88824
9666,-1.8585,-11.52988,3.17172,-86.0061,-11.38305,-23.90288
9689,-1.23242,-12.87901,0.21009,-72.63941,-22.91868,-17.37212
9714,0.71168,-12.17511,-1.2791,-91.25512,14.37377,-30.3726
9740,2.10031,-10.24539,-1.13425,-84.90747,13.51928,-43.86136
9767,-0.97264,-7.94815,0.03172,-56.70925,-39.03195,-29.27397
9794,-1.4036,-7.29094,-0.25558,-34.06522,-106.29265,-9.19341
9820,-1.73759,-7.03476,0.43395,-24.84892,-95.00115,1.85394
9847,-2.21045,-6.28897,1.1965,-12.6419,-69.73261,5.63812
9873,-2.77548,-5.24031,0.91638,17.38738,-55.08419,13.69475
9900,-3.00412,-3.94385,0.98821,62.98061,-33.23362,21.26311
9926,-4.05039,-5.54318,-1.00856,116.99667,-25.84837,39.75674
9952,-1.47423,-9.48164,-8.22109,59.62367,2.47192,12.59612
9979,1.33297,-17.99781,-19.57799,-77.15601,6.31713,-32.14261
10005,2.50254,-14.35264,-3.91392,-37.91043,18.40208,-53.13869
10031,-2.34811,-8.07744,-5.5731,-16.304,-1.7395,-33.8516
10056,-5.30974,-6.98448,-0.0413,32.40202,21.33177,14.24407
10082,-4.47536,-7.58663,2.94906,70.30482,6.07299,30.54044
10109,-2.90716,-12.34391,-0.81343,56.75502,-7.84301,4.84466
10135,-1.55803,-14.27483,3.13341,63.65199,23.71214,8.81194
10162,-1.78308,-12.20863,1.92793,46.86733,3.69262,24.19279
10187,-1.32938,-7.20116,2.12066,43.1442,23.04075,21.14104
10212,-0.94391,-5.78379,3.52367,64.26234,80.10858,13.99993
10238,-0.83019,-7.13293,3.70203,81.53528,83.28241,9.4223
10264,0.12989,-10.06103,1.65739,79.58215,34.08811,-3.0899
10291,0.40043,-10.12209,2.41156,102.89757,0.27466,-9.25445
10317,0.63865,-10.13765,1.54725,102.04308,-0.09155,-6.99615
10343,0.82301,-10.17476,-0.80864,82.87805,54.35176,-6.50787
10368,-0.02933,-10.27532,-3.54282,55.47329,133.81949,-9.62066
10393,-0.8661,-10.16758,-4.75907,17.26531,121.67349,5.33294
10419,-0.246,-9.89105,-3.45064,-12.09258,43.18234,15.64788
10446,0.56683,-9.68036,1.63704,11.77215,-20.78246,14.91545
10471,0.91638,-9.51516,2.74076,57.12123,-26.03148,4.78363
10498,0.77512,-9.63367,2.62225,88.73742,11.38305,-5.28717
10523,-0.80984,-10.52072,-2.04884,71.09827,64.6667,-0.28229
10549,-0.38487,-10.37348,-4.63218,-18.44023,78.27753,17.29583
10574,0.37649,-10.66437,-2.32537,-32.35624,36.40744,24.43693
10601,2.55641,-11.26532,0.2879,-4.8294,-3.87573,8.68987
10627,3.56556,-13.14716,-1.64422,-19.96611,-8.02612,-18.83696
10653,3.55,-14.56812,-2.23678,-53.53542,16.87621,-35.98783
10679,2.49895,-13.88457,-3.31896,-123.7258,41.22922,-50.57522
10706,-1.04208,-10.158,-5.73232,-197.70036,30.54807,-45.44827
10733,-3.33812,-9.62649,-3.72957,-192.81754,-34.08811,-31.22709
10760,-2.48578,-11.36109,4.3377,-120.85715,-75.95819,-31.7764
10786,-1.28389,-12.98555,2.76111,-80.94019,-82.30585,-23.47563
10813,1.0756,-13.9959,-0.14305,-86.8606,-62.2253,-31.04398
10840,1.85371,-10.01076,-0.08918,-95.89378,-10.7727,-51.0635
10866,0.20291,-8.34559,0.64943,-72.94459,-38.66574,-44.1055
10893,-0.15742,-7.19877,0.92596,-41.57254,-105.80437,-39.22269
10919,-1.99257,-6.85161,0.81942,-28.20585,-136.01674,-29.02982
10945,-2.31699,-6.62655,1.86568,-11.17705,-130.64566,-25.06254
10971,-3.3453,-6.53677,2.69886,5.72967,-99.21258,-13.03863
10997,-4.28622,-5.86639,2.24516,21.17155,-76.50751,8.20159
11025,-4.59148,-4.57472,1.07081,57.48745,-53.1921,32.85978
11051,-3.65535,-6.70915,-2.49296,78.66663,-79.07098,29.56388
11078,3.03405,-19.74678,-19.83057,-44.19705,-53.43624,-19.14214
11102,2.51451,-19.3242,-10.12687,-57.80788,-35.00364,-29.27397
11125,-1.68971,-10.4465,-2.76111,-3.6087,42.57199,-24.33012
11148,-4.43227,-6.28179,-3.52845,2.67792,79.37616,-2.60162
11171,-5.06673,-5.43903,2.23439,45.5856,37.13986,23.21623
11197,-5.45339,-8.33482,2.02011,79.88734,-30.85325,11.55852
11224,0.89364,-14.81951,0.74041,53.94741,24.6887,-8.58306
11250,-1.13066,-13.80557,2.19728,52.78774,11.93236,6.91986
11276,-2.04046,-9.94851,2.08355,62.85853,4.11987,21.56828
11303,-1.36888,-6.67204,2.86766,67.19202,24.44456,13.57268
11329,-1.15221,-7.13891,2.50015,60.66127,27.06907,4.66156
11355,-0.65062,-8.506,2.02849,72.38001,4.54712,-3.51715
11378,1.16298,-10.68592,1.54606,104.48447,25.66526,-6.62994
11403,1.45268,-9.76535,-0.72006,104.60655,61.00459,-18.16558
11428,0.13827,-9.40981,-3.00652,58.95229,60.45528,-11.32964
11453,-1.10433,-9.27574,-2.30382,39.11588,52.27657,11.80266
11480,-0.38487,-9.22067,0.17777,45.64663,39.21506,23.3383
11506,0.5776,-9.67317,-0.22087,44.85318,20.41624,25.41349
11533,1.49458,-9.89344,-0.31903,53.5812,7.04956,17.17375
11558,1.4024,-9.60973,-0.40522,71.03724,12.78686,5.51605
11584,0.1634,-10.09336,-1.57359,61.7599,11.93236,-4.18853
11609,-1.21446,-10.53269,-1.80942,25.19987,25.84837,6.91986
11635,-0.22685,-10.69909,-0.2053,-4.46319,32.19602,18.08928
11662,1.05644,-11.0235,1.24798,-6.23321,27.31321,21.99553
11688,1.95068,-11.10969,1.69809,18.97429,17.05931,14.54924
11714,2.10151,-11.53706,0.46388,20.13396,17.85277,-8.09478
11740,2.46543,-13.85944,-4.07433,-28.69413,19.07347,-24.08598
11766,1.40959,-12.85387,-3.70443,-72.88354,-1.92261,-36.47611
11792,1.01694,-12.16793,-3.2627,-121.22336,-6.56127,-43.49515
11818,-1.04327,-9.38108,-3.29981,-182.50261,-40.61887,-38.73441
11844,-2.96941,-9.25419,-1.33417,-182.56364,-71.68574,-25.00151
11868,-3.71281,-10.25257,3.60866,-136.72627,-38.78782,-16.57866
11892,-3.87801,-12.10209,4.06476,-111.57981,10.40649,-16.6397
11919,-0.62549,-13.55178,-0.26755,-78.0105,8.45336,-25.42875
11946,0.78231,-11.23659,-1.68731,-77.94946,-11.74926,-38.61234
11973,1.01933,-9.04948,-1.20368,-72.39527,-25.84837,-41.54202
11999,0.19932,-6.89351,1.10552,-51.09402,-62.2253,-40.74857
12027,-0.43993,-6.79654,0.76315,-32.23417,-105.25504,-31.89848
12053,-1.24798,-7.00603,1.09355,-11.54327,-103.24089,-11.87896
12078,-3.12503,-6.28538,2.03088,6.8283,-82.36688,5.94329
12105,-3.33812,-4.97096,1.66098,24.34538,-54.65694,16.31926
12132,-4.02166,-4.3748,1.09355,66.0934,-56.6711,36.33878
12158,-1.17495,-8.41382,-4.11503,92.7047,-72.54023,22.17863
12185,2.66175,-13.86662,-14.04379,-25.88652,-6.13403,-23.17045
12211,0.94511,-21.2671,-18.05647,-65.37624,-45.44064,-22.19389
12238,-1.65619,-9.168,-0.36571,12.13836,46.2341,-34.82816
12263,-4.64415,-6.36558,-3.05321,2.67792,51.11691,-6.75201
12289,-5.50966,-6.22911,-1.01454,25.81022,4.30298,14.61028
12317,-0.33339,-10.46326,3.20404,92.21642,-25.11595,-0.34332
12344,0.31544,-14.48911,0.91638,70.73206,59.41768,-0.46539
12369,-1.22643,-14.13836,1.74118,56.44985,55.99971,4.11224
12395,-2.73358,-7.82605,1.63464,56.63295,38.66574,10.21575
12421,-3.06997,-6.441,1.63105,58.2809,41.9006,18.57756
12447,-2.87484,-6.25545,1.05165,55.35122,34.39328,22.1176
12473,-0.15981,-10.50276,1.01933,48.027,5.88989,19.24895
12500,1.54965,-11.21265,2.04525,81.41321,12.54272,-1.38092
12526,2.58155,-10.51354,2.45705,99.90685,65.33809,-16.33452
12552,1.17017,-9.18236,-1.37487,66.4596,72.17402,-19.63042
12576,-0.50578,-8.74063,-0.52493,48.51529,70.64814,-5.10406
12603,-1.06961,-8.65683,-0.04369,51.87221,57.28145,8.50677
12629,-0.84455,-9.35953,-0.48542,51.99429,30.12083,17.17375
12655,0.90202,-10.13166,-0.40043,52.05532,33.41673,17.41789
12682,1.41078,-10.17955,-0.22206,54.67983,38.23849,9.91058
12708,0.98462,-10.21187,-0.18016,58.83022,32.74534,1.4267
12734,-1.17615,-9.90661,-1.32818,48.027,41.41232,13.99993
12759,-0.61112,-10.00238,-2.25953,6.21795,40.4968,27.48869
12784,1.55084,-10.96006,-0.98222,-13.37432,28.96116,27.30558
12811,2.71083,-10.87267,1.91117,16.65495,14.49584,10.03265
12837,2.22601,-11.72979,-0.51176,20.5612,15.35033,-10.35308
12863,2.37325,-13.55896,-2.96941,-29.73173,19.92796,-32.99711
12888,0.72724,-13.94203,-3.45064,-70.99146,8.57543,-40.13821
12914,-0.58,-11.97041,-3.85526,-128.91379,26.27562,-43.12894
12941,-0.87807,-10.3244,-3.02088,-185.98161,31.15842,-38.79544
12968,-1.82977,-9.51755,-2.32537,-195.74722,3.9978,-36.96439
12995,-3.38241,-11.40179,2.9742,-136.90938,-0.33569,-22.07182
13022,-1.97821,-12.36066,1.96025,-90.64477,-20.96556,-21.58354
13049,1.16179,-11.96323,-1.85012,-81.67261,-51.78829,-30.12846
13075,1.31142,-10.22623,-0.91997,-94.91723,-22.55247,-40.93167
13101,0.94631,-8.67599,0.35973,-77.8274,-42.26682,-45.5093
13127,0.11432,-7.92181,1.50535,-48.1033,-74.24921,-39.40579
13154,-1.37607,-7.40826,0.35494,-36.38456,-110.99235,-24.02495
13180,-2.16855,-7.25623,1.38445,-21.12578,-101.71501,-10.84136
13207,-2.80181,-6.72711,2.43909,3.53241,-67.59639,0.99945
13233,-4.18327,-4.98413,1.71964,28.31266,-40.6799,15.95305
13260,-4.17728,-4.03603,1.13904,74.88245,-29.14427,33.71427
13286,-4.31734,-5.15891,-0.10475,128.77646,-55.51143,35.42325
13312,3.72717,-16.4763,-19.1171,-29.06034,-37.81125,-22.07182
13339,4.65134,-21.97219,-18.75438,-87.95922,-71.01435,-38.18509
13367,-1.92314,-8.85675,-0.2472,3.71551,72.17402,-34.09574
13394,-5.15771,-8.70232,1.30664,36.91861,68.20673,6.00433
13420,-6.113,-7.28496,-0.95828,19.3405,-16.26586,27.61076
13447,-0.59197,-11.77409,2.09912,56.63295,-54.77901,6.67571
13473,-1.33297,-13.36743,3.8397,80.80286,-17.12035,19.24895
13499,-1.26953,-11.57776,2.94666,62.49232,15.71654,16.50237
13526,-1.45986,-7.12095,2.91195,47.11148,69.30537,3.99017
13551,-1.96384,-6.6888,2.6426,51.07876,100.55534,8.68987
13577,-1.52451,-7.91942,1.26474,71.09827,72.35712,12.59612
13603,-0.11552,-9.67317,0.41599,74.33313,36.95676,1.18256
13629,1.32818,-10.68592,1.25636,82.69495,47.82101,-12.61138
13654,1.34614,-10.31841,0.26635,74.2721,72.90643,-13.03863
13679,0.74639,-9.84556,-1.1139,48.027,76.01923,-5.65338
13708,-0.68175,-9.16919,-0.31783,37.89517,76.08027,5.76019
13731,-0.38846,-9.44812,-0.18256,41.37418,54.04659,16.13616
13757,0.46148,-10.01435,-0.17538,53.21499,35.61399,19.06584
13784,2.33854,-9.81084,-0.83019,50.04116,32.62327,5.14984
13811,1.11271,-9.69472,-0.54169,46.74527,37.75022,-3.51715
13838,-0.66619,-9.93055,-0.88885,44.24283,39.09299,0.08392
13866,-1.43473,-9.44812,-2.50972,21.53777,43.30441,19.92033
13892,0.82301,-9.9916,-1.61668,-11.72637,32.92844,29.68595
13918,2.13264,-10.90499,0.41958,-6.78253,-23.16282,20.77483
13945,1.84533,-10.39263,2.30023,30.08268,-22.73558,4.41742
13970,1.08637,-11.27968,-0.65062,24.40642,20.53831,-4.06646
13997,1.2803,-13.14117,-3.58711,-25.70341,67.65742,-15.23589
14023,1.84773,-12.77726,-3.10109,-69.46558,23.95628,-21.27836
14049,2.48578,-11.51431,-2.34332,-101.57005,8.5144,-34.0347
14075,2.1877,-10.22983,-3.14538,-158.57684,17.30345,-47.15725
14101,1.02651,-9.08779,-5.08947,-216.25504,-0.15259,-45.20413
14127,-4.23115,-11.39939,0.35135,-164.43622,-46.05099,-18.83696
14153,-2.62823,-12.1823,1.85251,-103.46214,-95.7946,-13.83208
14180,-1.14024,-13.26208,1.75076,-89.54613,-117.88931,-4.18853
14207,5.08708,-10.984,1.64182,-98.21312,-56.488,-50.88039
14232,5.63894,-9.59297,0.65062,-86.92163,-17.91381,-89.51562
14258,1.69689,-9.26616,0.40642,-51.82644,-81.20721,-69.313
14284,-2.4774,-8.01279,-0.57162,-26.19169,-161.71252,-30.79984
14310,-2.23798,-7.15926,1.30304,-7.82012,-136.74918,-14.80864
14336,-2.30023,-6.33326,2.58394,15.06804,-82.54999,-26.10014
14362,-3.89716,-5.23791,1.37726,31.73063,-72.05195,-23.7808
14388,-3.97856,-4.56155,1.1965,58.83022,-47.88205,-4.37164
14415,-4.34129,-4.34727,0.63506,111.50352,-37.81125,32.67667
14441,-1.47662,-10.50516,-7.70993,110.09972,-49.04171,39.5126
14467,2.44508,-18.61432,-18.9938,-63.78932,-54.96212,0.63324
14493,4.22038,-22.17689,-14.44482,-103.64525,-30.60911,-24.8184
14521,1.19171,-14.15871,-4.05398,-4.70733,42.08371,-28.05326
14548,-3.77985,-5.06314,-0.25079,52.90981,42.08371,2.70843
14576,-4.67169,-7.08145,3.23517,62.61439,7.4768,33.04288
14599,-1.53887,-10.48122,-2.13264,39.11588,-51.84933,17.66203
14624,1.01335,-14.18624,-0.89124,26.1154,13.27514,5.27191
14650,0.34895,-14.08928,2.81379,78.17834,43.24337,4.05121
14677,-0.05327,-10.41657,1.28509,85.50256,21.88109,-8.58306
14701,-4.69204,-6.18362,-0.58239,86.66222,8.57543,4.17328
14724,-5.18764,-6.44938,-1.33417,57.36537,4.79126,26.87834
14747,-2.02968,-8.61254,0.31903,26.84782,18.34105,30.47941
14771,-0.11791,-10.27292,2.0249,42.77798,18.21898,19.37102
14796,1.81181,-10.88823,3.36685,88.79845,31.52464,-4.24957
14822,3.08553,-9.57022,-0.73562,81.96252,53.31417,-24.08598
14848,1.3629,-9.74859,-1.87526,39.11588,64.84981,-15.78521
14876,0.0844,-9.39545,-0.7009,46.01284,46.53927,-6.44683
14902,-1.1989,-9.48164,-2.12426,53.82534,19.62279,8.81194
14927,-0.4555,-9.65522,-2.49296,29.65544,8.14819,16.5634
14953,0.51176,-9.60973,-1.30304,19.03533,6.86645,18.94377
14980,0.93913,-9.62529,1.35691,30.99821,-13.64135,15.22063
15007,0.57521,-9.48283,1.95906,53.70327,-11.32201,6.49261
