timestamp,ax,ay,az,wx,wy,wz
23,0.2065,5.59824,8.3396,-20.6375,22.94157,-16.31926
44,0.21608,5.43783,8.25581,-17.89092,26.2985,-15.52581
68,0.18974,5.17686,6.80492,-19.5999,8.84246,-14.42717
93,0.19453,5.13616,7.18081,-19.72197,-7.63702,-14.24407
116,0.35733,4.78421,7.76619,-16.97539,-14.28985,-12.96233
141,0.17178,4.08391,7.22989,-25.39824,-22.65166,-1.85394
166,0.58,4.12341,7.57466,-34.67557,-38.15458,-7.89642
190,2.04525,5.07511,9.88267,-38.33768,-31.86796,-24.68107
214,1.39881,4.51127,9.75099,-33.02763,-31.99003,-28.09904
239,1.28389,3.78583,10.14962,-8.91876,-40.41287,-25.65763
267,1.33297,2.86646,10.79605,13.96941,-27.41239,-15.03753
292,-0.36452,1.13186,7.34721,8.96453,-42.5491,24.45219
317,0.72963,1.58436,6.37396,19.70671,-126.04513,37.02542
345,0.63267,1.22763,3.9654,31.66959,-253.85265,50.81936
370,3.30101,0.95589,6.05793,11.3449,-246.52844,80.42139
394,3.23636,0.48782,6.8947,10.1242,-231.26965,107.52097
420,3.88878,0.57401,7.86076,21.04948,-163.15448,115.69968
445,3.85407,-0.07482,9.74859,71.89173,-156.31856,153.23628
469,4.32812,0.2496,8.06906,103.69102,-150.03194,174.11028
494,7.81527,3.38959,5.26904,72.50208,-156.86786,163.42914
518,8.51199,3.99173,6.99646,19.21843,-21.91924,139.86958
541,6.78696,2.16017,6.99526,3.1662,5.85174,161.72015
563,4.99011,0.02454,7.75662,29.7775,-25.52031,194.00772
584,8.72268,1.88603,8.01878,75.73694,-84.29712,197.12051
607,8.21989,1.66457,6.60022,93.80334,-79.78052,184.73039
633,9.21828,3.70443,5.65211,78.60559,-71.17457,200.59952
660,11.56818,2.06679,3.52726,47.41665,-39.61942,170.20404
686,12.45763,3.36445,4.58071,57.0602,-63.36207,146.76656
713,16.20934,5.31453,1.27551,27.27506,-100.47142,90.79736
738,18.62749,7.16884,-1.6514,-68.00074,-31.50175,38.85648
764,11.96802,0.82899,0.80984,-136.17697,67.13099,64.30811
797,6.54874,-2.02729,2.95983,-111.15257,12.3825,119.30076
822,7.05152,-0.82899,5.65211,-52.803,26.42057,134.37643
848,6.54036,-2.04405,4.20601,-25.39824,18.60808,151.5273
874,7.89668,-2.85568,0.9499,-40.04666,-12.58086,153.29732
900,9.88027,-3.33093,0.72365,-41.69461,-62.75172,132.42329
926,4.13658,-7.49684,2.07637,-66.41383,-73.18873,196.44914
954,11.43052,-4.48733,5.76105,-31.37967,-35.22489,174.96478
981,10.53509,-2.64859,4.6238,-7.02667,2.73895,136.02438
1006,12.89457,-5.59465,1.1139,-35.71317,0.17548,92.93359
1033,11.55621,-7.38192,0.69971,-55.73269,51.01772,29.39603
1060,8.53353,-9.33799,1.70647,-33.08866,95.02404,33.60746
1086,8.07385,-5.75267,-2.8892,-69.52662,0.60272,-4.78363
1113,8.02836,-8.24982,7.68479,-44.01394,26.78679,8.03375
1141,10.21307,-8.55388,8.6293,-32.47831,70.24378,-11.25335
1166,8.73584,-8.10138,-3.81576,-72.0901,29.65544,-24.559
1193,7.54832,-7.43938,-3.30101,-137.76387,-15.81572,-44.33438
1220,5.7826,-9.75817,-3.01969,-194.34341,-38.09354,-3.56292
1246,2.79942,-8.25581,1.2396,-198.67691,-51.52126,38.18509
1273,2.87843,-6.26263,-0.71527,-192.7565,-192.08513,56.06838
1301,4.94582,-7.04673,-2.58275,-39.31424,-333.86966,48.86624
1329,3.40036,-6.4434,-2.85329,10.85662,-191.29166,51.42971
1355,1.96624,-6.55592,-2.2727,-67.02419,-13.37432,89.33251
1381,1.24917,-7.6812,-1.01574,-77.8274,30.32682,108.61961
1406,4.03243,-8.80887,-0.57162,-12.45879,-43.89188,79.62793
1434,4.67408,-7.68239,-1.14622,-11.11602,-47.12674,50.02591
1461,4.24672,-7.71472,-2.67732,14.09148,-70.44215,28.72465
1486,2.41994,-7.83203,-0.29509,39.17691,-28.51103,24.08598
1512,1.49219,-7.94576,0.63865,74.2721,-4.76837,37.94095
1539,0.75118,-8.18877,0.28311,102.7755,23.42985,55.397
1564,-0.95229,-6.05673,-2.06919,123.95468,37.34586,81.52002
1591,-1.88723,-8.41502,-9.32961,22.51433,-81.85571,115.76073
1618,3.95343,-9.33799,-17.95831,-62.56862,-100.65453,38.73441
1644,13.66311,-18.48982,-1.30903,-29.18241,169.66997,-55.87001
1670,8.31087,-17.97986,-5.45818,12.99285,101.49376,-5.94329
1697,2.48817,-12.75691,-5.10623,-4.8294,23.06364,4.55474
1724,-0.9511,-14.59445,2.72281,10.55144,-0.25177,-0.32806
1751,-0.90202,-11.16117,4.19045,48.8815,-9.1629,0.89264
1777,-0.082,-6.90069,3.68168,67.74135,-21.43095,10.29205
1804,-3.3465,-5.33727,-0.87089,40.70279,-39.19217,42.76273
1831,-4.40473,-8.14807,1.76872,17.63152,-31.80692,98.24364
1858,-3.53085,-9.98681,3.15735,13.23699,-13.06914,110.99998
1884,-0.36691,-11.15518,3.08433,58.2809,-56.58718,54.60354
1911,0.8254,-10.16398,3.27347,103.93517,-69.8318,9.62066
1937,0.60394,-9.15722,1.93511,96.42785,-32.84452,-0.02289
1961,0.94272,-8.68437,-0.13467,73.53968,32.46305,9.07134
1984,1.76153,-8.70951,-0.62309,50.89565,48.57632,6.01959
2007,1.63584,-9.11173,-0.26396,46.86733,30.75407,9.55962
2032,1.45148,-9.43974,0.78231,50.83462,26.42057,16.09038
2060,1.45986,-9.66719,0.94631,58.64711,20.62224,19.56938
2086,1.37607,-9.51396,-0.0018,53.82534,-3.48663,20.66801
2113,1.31741,-9.2913,-0.14425,47.11148,-18.80644,17.61626
2137,0.56204,-9.26975,1.97701,52.05532,-2.20489,13.83208
2163,-0.2891,-9.64564,2.41874,62.18715,23.97917,16.45659
2189,-0.53211,-9.77852,1.85371,60.05092,59.25747,16.76177
2216,-0.16939,-10.35552,-1.38924,7.19451,89.83605,16.45659
2241,2.72161,-10.79486,-0.60394,-22.34648,40.33658,13.1607
2268,3.42311,-10.32559,1.50535,-17.52471,36.12516,14.99175
2295,4.53043,-10.41418,1.92314,-18.80644,55.29018,6.69097
2322,7.14609,-11.21145,0.01736,-33.1497,22.75847,-23.1552
2350,6.75464,-12.51988,-0.3729,-43.7698,-47.43191,-53.12344
2377,4.90153,-12.54981,-4.42269,-117.01193,-40.16873,-82.90856
2403,1.50895,-10.73261,-3.76189,-194.34341,-24.72685,-105.06432
2430,-0.82181,-11.98597,1.5269,-188.54509,73.60071,-112.99888
2456,-2.95624,-15.27441,4.56036,-140.57149,141.77693,-114.952
2481,-5.29538,-16.96591,3.69485,-94.97826,99.84581,-75.95056
2508,-4.69443,-15.35461,-0.92117,-85.45679,-9.40704,-39.5126
2534,-1.734,-12.98076,-3.02567,-57.38063,-70.68629,-20.71379
2560,6.9354,-7.81168,-0.0006,-36.01834,-87.0437,-62.58388
2586,8.43537,-6.74028,0.98462,-39.43631,-65.86451,-119.40757
2612,5.50367,-7.29932,1.36769,-24.36064,-92.9641,-83.15271
2639,0.92596,-7.27777,1.04806,-12.09258,-114.08225,-55.01553
2665,-0.09876,-6.6888,1.6909,3.83758,-97.66381,-53.36757
2691,-1.57359,-6.13095,2.27988,36.91861,-59.82204,-37.74259
2717,-2.53366,-5.65331,1.72323,66.03236,-28.87724,-12.04681
2743,-2.46064,-5.75267,0.22685,95.93956,-27.90067,23.10942
2770,-2.30502,-6.19799,-0.89244,114.2501,-15.32744,75.84375
2794,-1.91955,-8.0499,-6.51402,97.34337,-57.19753,112.09861
2818,2.79224,-10.12568,-9.73782,36.91861,-99.37279,82.80176
2843,8.44854,-13.78761,-11.69388,-17.15849,-102.48558,26.10014
2868,11.37665,-17.7141,-9.74141,-52.19265,26.78679,-20.10344
2895,5.37319,-10.0323,-3.40994,-10.99395,129.14267,21.21733
2921,4.3772,-7.22031,-3.70323,11.10076,133.78133,-10.8261
2949,0.39564,-11.60529,-3.9235,-15.99883,34.84342,10.29205
2974,3.92948,-13.41531,5.40192,1.39618,0.35858,4.73785
2999,2.40557,-8.12173,5.84724,57.30434,-53.65749,2.72369
3024,-0.01616,-5.19242,3.98694,81.10803,48.82046,23.65874
3050,-2.23798,-4.03603,-0.67816,48.82046,16.41082,42.0303
3077,-4.08511,-10.21666,0.6626,6.70623,-16.24297,61.37844
3102,-4.3377,-13.51946,2.01173,14.03045,-51.7654,81.27588
3130,-2.1865,-13.20941,3.40635,79.64319,-74.16529,43.73928
3157,-0.06883,-7.90745,1.57479,99.60167,-35.71317,23.04838
3183,-0.38726,-7.1437,0.00898,63.10268,25.01677,25.55082
3208,0.42796,-8.24862,0.01137,60.17299,31.73063,25.06254
3232,1.91357,-9.38108,-0.0018,53.09292,11.03973,14.19829
3256,1.83456,-8.92379,0.72245,50.71255,1.76239,19.75249
3284,2.20207,-8.91661,1.42635,57.85366,30.50993,33.05814
3309,2.98856,-9.22426,1.04208,63.28578,14.57976,31.53226
3333,2.77668,-9.26855,-0.29149,64.32337,-27.90067,28.2974
3357,1.94469,-9.03392,-0.06764,58.58608,-32.90555,24.14701
3384,0.90202,-9.27693,0.27354,49.73598,-21.06474,26.71049
3409,0.45191,-9.65402,1.24439,50.95669,2.37274,25.67289
3435,0.74879,-10.18673,1.9806,60.05092,44.67007,16.27349
3460,1.4048,-11.58494,-0.53211,16.71599,72.25794,16.39556
3487,2.62704,-11.55142,-2.28706,-20.88164,46.19595,11.69585
3514,4.27185,-11.45207,0.68654,-22.52958,1.94549,9.62066
3539,5.69521,-11.20666,0.43155,-29.24345,-1.10626,-0.3891
3564,6.81091,-11.52868,-0.06644,-57.44167,-6.29425,-39.26847
3591,3.62183,-11.96921,-5.49888,-116.9509,-18.31816,-89.56139
3616,2.07996,-11.16117,-6.80851,-178.41325,-20.27129,-112.26646
3642,1.16897,-11.233,-3.50571,-213.87465,21.29362,-125.81625
3669,-1.00736,-13.36384,2.99455,-175.3615,129.5699,-121.66586
3696,-5.02244,-16.71572,6.11659,-104.92699,174.7359,-90.29382
3722,-6.6074,-17.72487,0.22924,-90.33959,50.71255,-54.46621
3748,-4.06236,-15.8167,-8.67,-99.00658,-24.72685,-0.81634
3776,3.18848,-8.83879,1.12946,-61.89723,-56.0989,-17.23479
3802,7.75183,-5.76225,1.42635,-60.00515,-16.73125,-84.49548
3829,7.36636,-5.02483,1.86688,-50.78884,-5.25665,-91.63659
3855,0.06644,-5.57789,1.32699,-21.36992,-49.81228,-39.93985
3882,-0.2053,-5.27622,1.1965,-6.11114,-70.56422,-38.23087
3909,-1.54486,-5.51564,0.94391,23.8571,-85.70093,-28.46525
3936,-2.64978,-5.63894,1.21446,62.67543,-67.45142,-1.79291
3962,-1.98659,-5.14334,0.69492,104.54551,-24.1165,29.39603
3988,-1.85371,-5.15292,0.65422,138.29793,21.11052,72.36475
4015,-1.96863,-10.72064,-10.899,65.78822,-50.97195,123.32906
4043,8.95611,-17.74762,-13.40214,-3.18146,-72.88354,23.47563
4069,17.89726,-20.02211,-9.11293,-45.29568,106.49864,-75.52332
4094,5.48332,-6.80612,-5.75865,-24.23857,134.14754,8.8272
4121,5.22954,-3.41353,0.4974,42.04556,106.86485,-13.02337
4147,1.1139,-10.12687,2.89279,68.04652,-44.50222,5.3482
4173,-2.58873,-18.38687,-2.21045,-6.53839,36.43033,19.50835
4201,0.38487,-10.38904,1.61908,56.63295,-57.99098,14.50347
4229,-3.66971,-4.80456,0.26276,32.58512,-37.17801,53.13869
4255,-3.81815,-7.36037,2.66415,18.48601,-19.72197,78.40723
4282,-3.48057,-10.70867,2.62823,20.43913,-39.19217,85.79247
4309,-0.23403,-10.61888,3.30819,63.59095,-65.55934,53.3218
4335,0.79906,-9.60254,2.94188,106.49864,-39.80252,34.88919
4360,1.11749,-7.82006,0.7835,81.047,27.88542,23.10942
4386,0.6207,-7.5579,-0.75597,50.04116,43.93765,25.91703
4413,2.1458,-8.76338,-0.33339,43.75454,-1.89972,15.17486
4438,1.90638,-8.8795,0.62429,47.29458,-9.71221,17.55522
4464,1.79386,-9.09976,1.62985,53.03188,38.50553,23.53666
4492,2.52768,-9.35115,0.48303,60.41713,24.71159,23.10942
4518,2.4355,-9.29489,-0.22685,57.91469,-20.39336,21.58354
4545,2.05602,-9.07103,0.15742,57.42641,-26.49687,21.03423
4570,0.4938,-9.76535,2.2296,68.7179,13.72527,28.48051
4597,0.22087,-9.98083,1.70527,71.46449,26.60368,30.86088
4622,0.48064,-10.57938,0.35853,46.13491,37.34586,32.08158
4649,2.6845,-10.79486,-2.15658,-8.49151,44.548,27.13774
4675,3.3022,-10.20588,-0.35494,-29.60966,6.21795,21.1563
4701,4.52205,-10.25856,1.17495,-18.92851,-30.09794,11.69585
4728,7.44178,-10.95886,1.84054,-25.64238,-35.28592,-21.38518
4753,7.16285,-11.76331,1.24678,-43.34256,-22.65166,-72.95985
4779,3.38361,-12.52586,-3.25552,-127.26584,20.92741,-91.94176
4807,0.22206,-11.2713,-5.13377,-186.59196,-15.44951,-105.9188
4835,-0.72006,-12.27567,1.34135,-198.3107,56.26674,-120.56724
4862,-2.01173,-13.98513,4.96258,-153.08369,126.64023,-118.24789
4889,-4.64894,-16.88092,4.49332,-97.72485,105.15586,-91.27038
4917,-4.76506,-15.75923,-2.15059,-86.12817,-19.05058,-37.86465
4943,0.92117,-10.26813,0.64943,-76.91187,-31.56278,-10.03265
4967,5.09546,-7.42382,1.47782,-46.94363,-50.42263,-43.54092
4990,7.80689,-5.93582,1.62866,-42.30496,-26.92411,-102.19566
5013,5.78738,-6.21954,0.91758,-38.58182,-41.20633,-95.11559
5038,1.52092,-6.95695,0.73203,-26.43583,-70.93043,-59.65419
5065,-0.80146,-6.23151,1.32818,-11.90948,-77.46118,-50.01065
5092,-2.29903,-6.27939,1.26354,18.36394,-90.27856,-31.45597
5118,-2.62225,-6.39431,1.36529,51.93325,-78.49879,1.44195
5145,-1.24798,-5.58388,0.51894,82.38977,-42.91531,37.20853
5171,-1.20129,-5.2451,0.97025,109.61143,24.22331,66.20021
5198,-2.08236,-5.72035,-0.81343,131.58408,10.1242,114.66209
5225,4.43107,-16.35659,-17.74283,13.90838,-80.81812,105.1406
5250,16.681,-18.26716,-7.67162,-21.91924,21.04948,-24.98625
5272,19.5301,-15.1547,-6.10342,-47.49295,126.70126,-70.45741
5295,7.90146,-9.07343,-6.20038,-18.31816,87.08948,8.39996
5317,5.44621,-4.15095,-1.38684,12.93181,82.32874,-18.57756
5340,5.33608,-7.79373,4.31136,44.12075,-9.22393,-23.1552
5364,-3.30699,-20.71643,0.7847,47.17251,7.8659,9.92583
5387,-1.072,-13.2968,-0.9918,56.38881,-30.03691,4.24957
5412,-2.4762,-7.66683,-0.82061,47.53872,-86.79955,27.50395
5438,-4.1689,-5.68802,0.24002,17.44841,-49.14089,58.0215
5464,-4.80935,-8.02836,3.23038,9.0866,3.3493,88.60009
5491,-4.12581,-9.82161,2.62464,16.71599,2.18963,94.94775
5516,-2.54683,-10.62846,2.40198,67.68031,-39.80252,44.89895
5543,-0.08918,-9.22666,1.45148,86.78429,-37.42215,17.12798
5569,-0.41599,-8.51079,0.88406,65.48305,11.71111,20.85112
5596,0.04729,-8.98843,0.75956,48.08804,48.69839,33.05814
5622,2.62464,-9.22426,0.11791,37.10172,30.20475,20.05766
5648,2.99215,-9.19912,1.06362,38.56656,39.8483,9.98687
5674,3.21362,-9.43615,1.70288,45.64663,71.76966,8.09478
5700,3.60387,-9.48164,0.38726,48.82046,54.49672,7.11822
5726,3.0137,-9.13927,-0.31065,54.00844,3.71551,14.01519
5754,2.50972,-8.97766,-0.59197,48.82046,-20.8206,9.8648
5781,0.94751,-9.69831,0.88286,37.10172,5.4245,8.52203
5808,0.48183,-10.14483,1.3222,44.48697,15.55632,12.91656
5834,0.4124,-9.7881,1.39043,52.72671,29.89957,15.35796
5861,1.9004,-9.91858,-0.37409,34.23307,38.26138,25.97807
5887,3.31896,-10.1161,-0.85174,5.6076,12.32146,19.32524
5913,4.01567,-10.55185,0.15024,3.1662,-6.78253,9.68169
5940,4.47297,-10.28848,0.79787,-5.25665,8.41522,-13.14544
5967,4.27425,-11.63402,0.37649,-26.74101,10.3073,-34.56876
5994,4.15095,-12.65156,-0.14186,-60.43239,30.75407,-76.07264
6022,-0.14305,-12.83831,-8.755,-149.60468,65.11683,-85.96032
6048,0.60274,-10.64163,-5.68563,-199.71451,32.95133,-116.96616
6074,-1.03729,-10.85351,-0.01137,-198.98209,82.63391,-118.91929
6100,-4.81534,-15.31272,4.93864,-164.25311,149.58942,-83.51892
6127,-4.4179,-16.59601,4.69084,-100.28831,104.60655,-38.65811
6153,-2.56599,-15.51263,1.84653,-84.84644,-3.12042,-16.25823
6180,2.38043,-13.049,-4.14855,-87.10474,-42.42703,-20.34758
6207,7.00244,-8.39826,0.09996,-73.86012,-62.62965,-61.48525
6233,5.76105,-7.56149,0.9906,-62.20241,-54.81716,-65.33046
6259,1.02053,-7.00005,2.25953,-42.97635,-46.8826,-48.05752
6285,-0.03053,-6.53438,1.84174,-25.15409,-50.17849,-41.83194
6313,-1.0744,-6.12018,1.31023,-6.66046,-70.0149,-33.04288
6338,-2.18172,-5.65091,1.72442,23.73503,-46.69949,-11.19231
6365,-2.18052,-5.72394,1.47782,55.53432,-26.98515,17.18901
6390,-1.6083,-5.91547,0.79547,101.00548,-4.09698,51.12453
6414,-1.06123,-5.80773,0.14186,140.8614,-2.93731,74.62305
6441,-0.52014,-10.29447,-13.50749,99.78477,-66.04762,116.37107
6468,10.49319,-15.70536,-13.13639,-15.20537,-76.48462,5.95855
6494,14.34426,-16.53017,-7.5555,-39.98563,35.08756,-51.78066
6521,6.57986,-9.22187,-2.75992,-42.30496,113.94492,-18.39445
6546,1.13545,-10.85351,4.38079,25.99333,150.62703,-6.3095
6573,-2.07158,-13.22377,2.06919,49.43081,-13.19121,10.0479
6599,-4.52923,-9.03871,-3.72119,-7.27081,-79.9026,76.69824
6625,1.72442,-8.08223,3.10109,46.01284,-114.75364,80.17725
6653,4.88238,-8.16842,2.52528,46.92837,-86.06714,42.82376
6681,2.84132,-10.83795,1.12348,36.5524,-36.56766,5.40924
6708,-1.00377,-9.4146,0.29509,9.45281,-49.26297,14.50347
6734,-2.57676,-8.55628,1.17735,7.80486,-58.7234,33.24125
6760,-1.36888,-9.40622,2.29664,31.24235,-96.26,44.16653
6786,0.34776,-10.43094,2.46304,52.78774,-102.48558,43.43411
6813,2.29784,-10.83436,2.47022,66.0934,-60.67653,24.39116
6841,3.06637,-8.81246,-0.27713,54.67983,-16.48711,-1.67084
6868,1.54486,-8.66162,-1.49219,36.91861,-22.52958,-13.51165
6893,-0.70689,-9.31883,-0.89483,24.95573,-35.95731,-4.60052
6919,-0.84216,-9.56184,-0.07482,26.84782,-38.52079,7.11822
6946,-0.59436,-10.04427,0.12869,32.82926,-49.26297,22.377
6972,0.42677,-9.81683,-0.2472,33.74479,-68.61109,31.83744
6997,2.72161,-10.03709,0.96905,42.96109,-74.59254,38.24612
7020,3.5105,-9.85394,1.16897,53.82534,-52.49783,33.11918
7043,3.22918,-9.2099,0.48782,55.59536,-45.23465,29.57914
7069,2.58155,-9.26496,-0.53091,46.31802,-53.35231,32.50882
7094,2.50852,-9.49361,-2.20446,21.35466,-68.9773,33.05814
7120,3.23157,-10.10413,-2.12066,-4.52423,-99.80003,24.6353
7146,3.76309,-10.79007,-0.87927,-7.57598,-81.61157,-1.6098
7174,-0.09158,-10.84035,-5.21637,-76.97291,-54.81716,-5.57708
7201,1.76752,-11.11568,-3.83372,-123.11544,-101.81419,-14.24407
7227,3.56078,-12.33313,-2.93828,-184.3947,-61.28688,-23.1552
7254,3.55479,-13.5829,-0.23403,-164.98553,-100.22728,-31.94425
7282,2.62105,-11.55741,0.10475,-159.91962,-156.07442,-60.0204
7308,1.84174,-11.28208,3.52845,-142.03633,-119.51437,-76.0116
7334,1.87765,-12.7162,9.49241,-83.32056,-38.09354,-72.47157
7360,3.99413,-11.8507,8.44495,-2.32696,-20.75957,-73.20399
7388,6.8564,-10.02033,4.52684,13.05388,-6.41632,-101.09703
7414,4.48614,-9.25898,-0.36212,25.13884,-92.10961,-92.43005
7441,3.05201,-9.08659,0.26635,42.77798,-187.44646,-85.28894
7469,2.8485,-8.94414,1.50775,54.25259,-226.75307,-97.98424
7495,1.25636,-9.57381,4.3784,72.99036,-233.10072,-97.00768
7522,0.55007,-9.94132,4.24672,78.54456,-176.88737,-76.31678
7549,0.77153,-10.02392,1.97342,63.28578,-186.83611,-64.90321
7576,1.64422,-10.76373,-0.05567,52.3605,-215.27846,-61.54628
7602,1.66696,-10.88105,1.17136,60.60024,-174.56805,-65.5746
7628,0.73921,-10.6105,0.76435,64.26234,-148.99434,-56.72451
7654,0.26276,-9.43256,-1.20847,61.14955,-134.89522,-43.17471
7680,0.78111,-8.74303,-1.08517,55.41225,-125.61789,-35.48429
7706,0.63267,-8.73225,-0.3298,54.67983,-109.19945,-26.26799
7733,0.69971,-9.17518,-0.47345,59.86782,-101.08177,-12.35198
7760,1.48979,-9.42058,-2.08236,59.80678,-117.56126,3.27301
7785,2.51092,-9.68634,-4.07553,43.81558,-156.13545,10.0479
7810,4.04321,-8.93336,-0.83378,57.12123,-144.4167,12.48931
7836,4.0037,-7.64888,0.26276,72.62415,-103.46214,20.91215
7862,4.24312,-7.16644,-1.63105,54.06948,-105.90354,12.24517
7889,5.39833,-8.59099,-0.14305,38.93277,-28.14482,-22.78898
7915,4.25869,-12.14638,3.54402,42.41177,-72.2732,-23.27727
7941,-0.49261,-12.29123,3.58592,71.40345,-134.65109,27.62602
7969,-0.73682,-14.27363,-15.51143,5.85174,-118.23264,61.86671
7996,-0.49859,-8.61015,2.73837,2.73895,-143.13496,51.00246
8023,-0.22924,-8.53353,3.1382,1.45721,-133.61348,38.5513
8049,-0.70689,-9.46488,3.38959,19.3405,-135.8718,38.5513
8075,0.14305,-10.0754,3.07356,58.15883,-150.27608,41.72513
8101,1.42036,-9.496,2.07278,67.06996,-137.58078,25.42875
8127,2.05722,-8.9597,-0.26396,42.47281,-132.39278,3.33404
8153,0.993,-10.07061,0.91997,36.06412,-116.27952,-3.92914
8179,0.69013,-10.65121,1.072,34.53825,-90.40063,-3.13568
8206,0.91159,-10.22983,0.246,18.60808,-87.59302,-2.76947
8232,1.17735,-8.56586,1.73759,11.10076,-58.29616,-8.3847
8257,0.3705,-8.81964,2.73957,23.00261,-52.13161,2.17438
8284,-0.2077,-8.9585,3.59549,53.82534,-62.81276,10.84136
8310,-1.4024,-10.05864,3.24953,89.10363,-80.08569,20.91215
8337,-1.09954,-10.30764,0.20051,86.05188,-91.92651,33.60746
8364,-0.11193,-10.1173,-1.78188,41.31314,-76.30152,41.29788
8390,1.10073,-9.17398,1.53887,31.79166,-68.36696,43.49515
8416,1.74717,-9.02315,3.10109,51.87221,-58.60134,40.68753
8441,1.84892,-9.48643,3.23756,68.29066,-44.19705,35.43851
8467,1.55683,-11.82915,-1.35572,63.71303,-18.80644,27.44291
8494,2.28586,-12.54143,-6.7738,1.88446,-12.88604,15.72417
8520,3.07595,-11.66994,-5.54198,-51.15505,6.95037,16.15142
8547,4.17249,-11.06061,-3.74633,-86.8606,-10.99395,11.32964
8572,6.99765,-12.29602,-0.51176,-117.07297,-115.73019,-17.84514
8598,7.34601,-11.79803,3.0544,-103.70628,-57.01442,-66.67323
8625,1.18214,-9.49481,-5.02124,-173.46942,-8.00323,-91.39245
8651,-0.2053,-11.76211,0.84815,-173.59149,52.17739,-108.54332
8677,-1.65858,-14.29518,5.75985,-131.47726,124.44296,-98.77769
8705,-2.72999,-15.87655,5.2451,-66.90211,33.98893,-66.55116
8732,2.05602,-12.39658,-0.60992,-41.69461,-60.92067,-63.62147
8758,2.88441,-11.32517,-0.13827,-37.17801,-53.16921,-83.21375
8783,3.78344,-10.01076,1.35213,-30.46415,-44.68533,-109.64194
8808,2.82695,-8.45931,-0.95469,-35.95731,-88.08129,-114.58579
8835,1.71365,-7.99843,0.36212,-25.45927,-123.7258,-97.98424
8861,0.87329,-7.56029,1.46705,-15.32744,-124.09201,-80.95544
8889,-1.07679,-7.18799,1.09954,-7.33184,-115.97434,-66.00185
8913,-1.72921,-7.2682,0.88166,18.24187,-95.40551,-39.63467
8939,-2.13503,-7.48607,0.77991,41.80142,-61.10378,-17.05168
8966,-1.75794,-6.57747,-0.2484,59.92885,-32.47831,5.22613
8993,-1.30304,-5.59106,-0.23882,76.77454,8.049,29.82328
9018,-0.97145,-5.11701,-0.75118,95.93956,28.3737,62.04982
9044,1.03609,-10.18434,-9.48643,69.08412,-19.47783,83.0459
9070,9.0854,-15.80712,-10.02392,31.60856,-38.64285,49.11037
9095,15.59284,-16.77677,-6.1118,-5.50079,3.77655,-25.5966
9121,17.45672,-11.68191,-5.84245,-11.84844,40.88589,-24.62004
9148,6.42664,-4.29221,-0.04369,26.35954,62.30922,-5.21087
9174,4.64774,-6.95935,3.38121,64.38441,8.23211,-20.0424
9202,-1.12348,-17.13351,5.58627,70.24378,55.65639,35.92679
9230,2.86766,-12.94844,-8.53114,10.06316,-93.08617,-11.98577
9255,-2.99694,-8.85915,1.8154,44.12075,-85.02954,30.79984
9282,-5.00089,-5.6162,3.81097,31.12028,-8.00323,77.97998
9307,-4.7495,-7.20954,3.31298,18.48601,32.76823,97.75536
9333,-5.12658,-9.91379,3.04961,30.20475,17.93669,104.7744
9359,-3.67091,-11.27011,2.70605,90.2633,-45.35672,67.60402
9384,0.30347,-9.93414,1.19171,116.81357,-64.15553,27.44291
9408,0.56204,-8.50121,-0.37409,77.568,-15.02227,13.09966
9430,0.38487,-8.38868,-0.32382,39.66519,67.80238,25.61186
9452,1.48859,-9.06385,0.48542,35.88102,88.12707,22.25493
9474,2.69647,-9.0411,0.29149,27.88542,49.36977,5.53131
9498,2.55761,-8.73824,0.35733,27.88542,31.30338,-0.69427
9524,2.29185,-9.36911,1.86329,39.72623,37.59,3.70025
9548,2.70485,-9.8707,1.54965,49.12563,38.07828,9.74273
9571,2.92272,-10.11969,0.9894,55.22915,14.15252,12.67241
9594,3.03166,-9.46967,0.65781,57.67055,0.72479,-2.58636
9617,2.46782,-8.97766,0.96546,56.38881,24.77262,-5.69915
9644,-0.03053,-9.4146,2.12545,65.29994,52.42153,6.01959
9670,0.00539,-10.21905,1.71485,86.17395,45.64663,13.1607
9695,0.5776,-10.23461,1.04327,85.44153,52.78774,11.51275
9721,2.74795,-11.14321,-4.75668,-9.04083,109.9166,13.03863
9747,3.29143,-10.80204,-1.27791,-27.7786,54.8019,4.92096
9773,4.06835,-10.78528,0.6614,-21.24785,6.70623,-0.81634
9796,5.27263,-10.85351,1.08517,-46.0281,30.38786,-26.20695
9821,6.19919,-12.83951,-0.0018,-65.6814,20.98845,-63.43837
9846,3.66612,-12.88739,-5.5324,-121.10129,30.02165,-106.22398
9871,-0.68295,-12.86584,-9.28172,-189.15544,2.43377,-108.66539
9895,-0.92715,-11.80282,-2.85209,-217.96402,91.42297,-115.31821
9918,-4.1713,-14.74409,5.08588,-195.01482,192.80228,-109.03159
9943,-5.59345,-16.48947,5.17327,-149.23848,214.897,-91.39245
9968,-6.70676,-16.77557,2.54923,-85.70093,106.68174,-47.93545
9995,-3.43748,-14.09287,-3.93188,-90.88891,-19.4168,-3.80707
10021,5.31573,-8.73824,0.69731,-69.95387,-38.64285,-22.3007
10047,9.2901,-6.34284,1.02412,-66.719,-21.30888,-93.58971
10072,7.37953,-6.2758,0.32501,-68.67213,-16.91436,-100.85289
10098,0.08679,-6.53557,1.60591,-34.5535,-40.90115,-45.18887
10125,-0.26396,-5.76344,1.09116,-23.50615,-57.13649,-44.09024
10152,-1.06482,-5.32051,0.67935,-5.68389,-83.50366,-42.8085
10179,-1.88484,-5.6964,1.64781,38.44449,-61.59206,-11.07024
10206,-1.32579,-5.76943,0.89124,71.22034,-30.64725,21.70561
10232,-0.47465,-5.48332,0.34297,95.57336,7.62176,47.03518
10258,-0.81104,-6.33925,-2.10271,122.18467,19.95085,86.58593
10284,0.19333,-10.71226,-8.53114,76.3473,-39.31424,107.33787
10310,9.63247,-17.53453,-13.56016,-2.75421,-57.38063,5.71441
10337,18.82022,-18.20132,-11.13483,-56.58718,64.38441,-92.61315
10363,5.82449,-7.46692,-5.81851,-15.63262,34.96549,10.9024
10389,4.62859,-5.91667,1.18693,17.69255,123.83261,-5.33294
10416,1.70527,-15.1547,4.22038,44.36489,98.13683,-6.3095
10442,-6.56909,-12.0159,-1.22523,1.88446,21.78191,32.26469
10468,-4.36164,-7.82246,3.12982,55.04604,-93.51342,64.43019
10494,-2.94188,-7.36516,2.01771,52.72671,-143.92842,81.58105
10521,-1.09834,-9.06864,2.44029,30.63199,-89.36303,78.89551
10548,-1.03489,-10.76613,3.49494,41.86246,2.1286,57.71633
10575,-0.21009,-10.41178,2.3553,56.14467,-11.05499,59.91359
10602,1.40959,-9.06026,1.85371,76.46936,-31.74589,48.25588
10628,2.28467,-7.51719,1.45388,71.64759,-14.35088,19.50835
10654,2.00694,-7.71472,1.13665,62.06507,24.8947,0.70953
10680,0.91638,-9.12969,0.9894,55.90053,61.14955,-3.99017
10706,0.68654,-8.76936,0.29628,49.00356,58.89125,-6.73675
10733,0.01377,-9.03991,0.33339,44.24283,55.96157,5.77545
10758,0.27114,-10.32799,0.47345,45.28042,47.47769,29.94535
10785,2.06799,-9.64803,-0.11791,43.26626,-1.41144,32.93607
10812,2.85568,-9.32123,-0.11791,42.71695,-40.04666,32.6309
10839,2.5588,-8.19236,2.31938,51.75014,-27.71757,36.72025
10865,2.42114,-8.55987,2.82935,74.33313,14.15252,25.61186
10892,1.81421,-9.25299,2.38163,78.23938,49.0646,15.6021
10919,1.38564,-11.46284,-2.47022,28.98405,88.92052,14.01519
10946,1.93152,-11.50234,-2.7252,-22.83476,32.82926,16.39556
10974,2.85329,-11.12645,0.02813,-11.72637,-15.32744,18.65386
10998,5.38037,-10.8595,1.38684,-18.80644,23.8571,3.15094
11024,6.08786,-11.67233,0.11672,-44.44119,-4.09698,-21.08
11052,6.20278,-12.5103,-0.79547,-75.32496,-18.3792,-60.99696
11078,3.28305,-11.44967,-6.94977,-142.52461,-21.24785,-91.02624
11104,2.82576,-10.27412,-4.11384,-193.12273,-13.25225,-120.56724
11130,0.18016,-11.42693,0.69492,-185.73747,93.19299,-129.96664
11158,-4.01328,-16.29314,4.96857,-151.25264,162.34576,-113.91441
11184,-6.29376,-18.64664,4.38199,-88.2644,119.68222,-64.04872
11211,-6.75225,-17.09759,-1.31861,-79.41431,-23.81132,-20.83586
11237,1.81062,-10.41897,0.40043,-58.66237,-50.42263,-15.03753
11261,7.72669,-6.86597,1.01933,-56.40407,-47.30984,-84.31238
11289,10.00836,-5.24031,0.85533,-63.17897,-44.44119,-121.97105
11315,1.157,-6.6469,1.66337,-35.65213,-87.83716,-59.8373
11341,0.6183,-6.70676,2.21883,-15.69365,-92.23168,-41.7709
11369,-0.76076,-6.67204,2.30382,0.78583,-88.69164,-37.01017
11394,-3.46381,-6.08786,2.11947,29.89957,-74.40942,-27.36662
11420,-3.87083,-6.10821,1.23242,58.15883,-42.42703,-1.36566
11447,-3.22319,-5.40551,0.8266,103.75205,19.52361,47.64553
11472,-2.41276,-4.86562,0.5764,130.54648,46.07388,94.09325
11498,-2.83533,-9.21708,-9.75099,83.91565,-24.90995,136.39058
11525,7.91822,-15.42764,-14.82789,11.58904,-62.99586,43.00686
11552,17.58002,-17.28913,-5.52522,-38.21561,132.31648,-63.98769
11578,8.12293,-8.919,-6.4829,-16.36504,92.7047,15.96831
11604,6.7726,-5.54437,-1.51852,23.49089,110.89317,-5.94329
11630,4.96976,-13.19026,2.98856,30.93717,-37.91043,-34.08048
11655,-1.55563,-16.07287,4.0875,61.45473,-30.09794,-4.9057
11681,-0.21368,-8.05709,-1.92314,70.24378,2.37274,12.91656
11708,-2.4379,-5.43304,-4.8321,30.87614,-78.25464,47.95071
11737,-4.98772,-7.07546,2.16256,-3.4256,-82.83228,92.75048
11763,-5.47135,-10.51593,3.19686,-12.51983,-42.06082,128.70016
11789,-2.03328,-10.42136,3.19446,18.60808,-51.94851,106.84959
11816,0.9104,-8.35277,3.21122,77.44592,-71.84595,32.26469
11841,0.18974,-7.85957,1.60112,69.81654,-51.82644,10.84136
11868,-0.48423,-8.23186,1.02891,65.78822,-17.95195,30.67777
11894,2.05363,-9.86232,1.68133,81.47424,6.76727,27.50395
11920,3.17531,-9.56663,0.90561,78.60559,40.21451,17.79936
11946,3.2603,-9.07223,0.56204,58.21986,98.44201,11.0855
11972,2.99096,-9.41939,-1.37367,47.90493,67.37513,5.89752
11999,2.16256,-9.94851,-1.90279,39.8483,-24.17753,16.6397
12026,1.61908,-9.70669,-1.53768,30.93717,-62.0193,18.40971
12053,1.46944,-9.02794,1.69928,33.43961,-38.39872,16.15142
12078,0.94751,-9.32721,2.91195,53.33706,-0.86212,20.66801
12102,0.87089,-9.39185,3.48536,79.46008,24.40642,13.1607
12129,0.93314,-9.52952,2.34213,72.99036,16.83806,9.68169
12154,0.98821,-11.26053,-2.88801,1.70135,59.37953,10.47515
12181,2.24277,-10.85471,-2.29544,-34.12626,18.1198,5.47027
12208,4.03363,-10.97562,0.42677,-21.12578,-41.08426,1.07574
12235,6.7307,-12.06738,2.15059,-28.44999,-23.01787,-26.14592
12262,7.13771,-12.06738,1.00377,-62.56862,33.37858,-91.02624
12287,0.36212,-12.3032,-11.37186,-163.27655,46.6232,-99.63219
12314,0.45191,-11.43411,-6.29735,-215.94984,-14.22881,-106.89537
12340,-0.90561,-12.08773,1.62866,-204.84146,52.05532,-113.91441
12365,-1.91117,-13.31236,5.16968,-165.84003,135.30721,-112.81577
12391,-5.85921,-17.38131,5.08469,-96.99242,149.65045,-81.5658
12418,-5.4929,-15.45397,-4.48015,-91.49926,12.68767,-31.08976
12446,-1.98539,-12.57973,-3.48656,-61.89723,-40.90115,-8.3847
12473,7.02638,-6.96174,0.77512,-40.90115,-48.1033,-65.14735
12499,8.60895,-6.4434,0.50817,-47.85916,-26.00859,-106.16295
12526,1.45148,-6.88273,1.44789,-18.98955,-42.06082,-59.59315
12552,0.38367,-6.23031,0.29389,-11.05499,-68.00074,-43.41885
12578,-1.04327,-5.82689,-0.10116,5.11932,-107.00218,-33.89737
12605,-2.21524,-5.70957,0.68654,37.77311,-91.68237,-15.70891
12631,-2.19488,-5.41149,1.05884,66.03236,-29.54862,9.37652
12658,-2.06679,-5.2439,0.32022,90.20226,6.95037,44.59378
12684,-1.93033,-5.44262,0.10714,111.9918,44.12075,89.33251
12711,-2.30023,-10.33278,-7.84759,78.36146,-26.06962,136.26852
12738,5.02244,-16.1866,-14.54897,-1.71661,-85.70093,60.95119
12764,14.82669,-18.7053,-8.92379,-39.43631,111.44248,-68.74842
12790,8.89625,-10.34953,-5.60303,-27.35136,114.31113,-19.67619
12816,6.22313,-6.71514,-1.99257,14.21355,130.72957,9.31548
12841,5.1206,-13.35186,1.51493,14.70183,66.39857,-45.18887
12868,-5.15172,-11.62924,1.58795,38.56656,13.66424,-5.82122
12894,-4.79738,-5.68563,-1.00616,54.67983,-30.76933,41.60306
12921,-2.54803,-5.2439,-0.61471,39.11588,-94.36791,48.9883
12946,-3.87322,-10.29686,2.46304,14.70183,-67.81763,80.29932
12973,-3.60267,-12.96161,3.65415,33.43961,-24.97099,100.86815
13000,-1.27192,-11.56579,2.89399,48.39321,4.93621,55.397
13025,0.32741,-8.9609,1.02532,50.52944,-7.14874,44.41067
13050,0.92835,-8.02477,0.65422,44.91421,-14.71709,44.34964
13077,1.60112,-8.25461,0.66738,39.29898,-24.66581,37.63578
13104,2.42592,-9.14046,1.49937,48.45425,-12.39776,23.23149
13131,2.18052,-8.77535,2.36966,54.92397,43.1442,17.55522
13157,2.37325,-8.09779,1.42156,60.35609,47.17251,7.97271
13182,1.59753,-10.16758,0.72724,69.02308,27.39713,14.74761
13208,1.94708,-10.12089,0.35015,75.3097,17.38738,16.15142
13234,1.85491,-9.39066,-0.83617,64.07924,-12.27569,15.48003
13260,1.38564,-9.22546,-1.35332,46.50113,-25.88652,17.00591
13288,0.60992,-9.54508,1.04327,46.74527,-17.58574,22.377
13313,0.75956,-9.11892,1.39283,57.97572,19.70671,23.53666
13341,1.10313,-9.38467,-0.26875,15.73943,50.16323,22.25493
13368,2.90596,-10.62846,-0.26276,-11.78741,-0.00763,13.03863
13394,3.0161,-10.45129,1.67295,-5.80596,-12.15362,11.26861
13422,3.43628,-10.56501,2.32297,-7.75909,1.02997,6.99615
13447,5.51923,-11.74895,1.64302,-20.33232,-23.81132,-23.21623
13473,5.6557,-12.40735,2.00933,-20.21025,-1.28937,-70.2743
13502,3.04602,-12.98196,-2.10869,-121.58957,62.85853,-82.23718
13529,0.83857,-10.88823,-6.8947,-188.60612,-18.3792,-107.93297
13556,-0.4124,-10.6955,-0.01856,-201.6066,46.68423,-114.58579
13582,-3.69246,-14.31074,4.99969,-176.27704,159.29401,-97.19079
13609,-4.27545,-16.20456,5.05117,-118.11057,125.29745,-67.10047
13637,-4.90871,-16.42961,3.52845,-73.18873,-5.13458,-21.69035
13662,2.64739,-11.86147,-1.97462,-80.69604,-36.07938,-8.44573
13688,6.68282,-8.77894,0.2053,-58.17409,-65.86451,-51.8417
13715,8.26179,-7.05152,0.9092,-58.29616,-56.0989,-95.23766
13741,1.02053,-7.01681,1.91357,-47.92019,-58.84547,-61.11903
13768,-0.37888,-6.4841,2.27389,-32.23417,-50.17849,-42.44229
13794,-1.68372,-6.21714,1.81181,-14.0457,-61.22584,-32.73771
13821,-2.809,-5.71795,1.63584,15.31218,-55.73269,-23.27727
13847,-3.04004,-5.88196,1.3198,47.29458,-34.98075,-0.3891
13873,-2.5205,-5.58388,0.80864,81.2301,-2.08282,28.84672
13901,-1.85132,-5.84484,-0.46148,116.81357,46.19595,73.03614
13928,-2.11109,-7.41424,-4.40354,118.27841,4.02069,109.6572
13954,-0.07841,-12.03864,-12.29482,34.23307,-72.39527,89.51562
13982,16.7241,-16.74565,-5.87238,-12.27569,62.7975,-48.91201
14008,12.49354,-13.56375,-6.51762,-42.12186,115.53183,-33.04288
14034,5.62817,-7.90027,-6.61697,-0.37384,86.35706,0.46539
14061,4.61183,-10.04427,0.42437,24.34538,86.96741,-27.18351
14088,1.17376,-17.13829,1.86209,37.40689,-26.80204,-3.80707
14114,-0.0808,-16.04414,1.1582,10.06316,-23.56718,15.23589
14141,2.24995,-10.16279,2.12066,51.26186,-101.14281,-0.87738
14169,-0.82061,-7.83802,1.69569,53.33706,-44.99051,7.85064
14196,-4.63936,-7.44058,2.1458,42.2897,4.93621,43.80032
14224,-6.54754,-9.01477,2.29903,13.72527,39.23795,90.79736
14249,-5.73471,-9.30327,1.40839,6.76727,-3.4256,89.27148
14275,-4.03842,-9.35115,1.95187,31.66959,-36.26249,55.5801
14301,-1.99617,-9.26616,3.09271,53.15395,-15.51055,39.22269
14326,-0.83737,-9.55346,1.93033,53.45913,-3.05939,27.99223
14352,0.11073,-10.02752,1.61668,58.2809,20.07292,22.07182
14378,1.92195,-9.92935,0.99778,53.7643,84.526,20.72905
14404,2.54683,-9.27454,0.20171,19.76775,125.78574,8.8272
14432,2.31579,-9.27095,0.99778,17.0822,143.11971,5.22613
14458,1.9423,-10.24778,0.48902,25.38298,111.56455,7.48443
14483,1.97701,-10.10533,0.17538,23.30778,60.66127,11.69585
14511,1.99018,-9.83718,0.64224,28.00749,40.33658,18.83696
14537,2.40677,-9.59416,1.09714,26.35954,54.43569,13.3438
14565,2.06081,-9.62768,1.05644,34.66031,52.60463,6.75201
14590,1.70168,-9.24701,0.97384,41.31314,60.23402,-6.55365
14616,-0.30825,-9.42418,-0.46388,21.90398,66.2765,-4.72259
14643,-0.8685,-9.62409,-0.68773,-10.99395,57.85366,13.3438
14670,0.1658,-9.81443,-0.38247,-35.95731,23.42985,20.97319
14696,2.17812,-9.88865,2.51092,-31.37967,12.93181,4.73785
14722,1.96504,-10.17596,3.27467,-30.58622,49.18667,-4.53949
14749,2.38642,-10.2825,4.06835,-23.99443,97.0382,-30.17423
14777,-0.69372,-12.77606,5.96216,15.43425,168.93756,-40.12296
14802,-1.56641,-11.50593,4.06835,52.60463,202.81204,-41.70987
14828,-1.83336,-10.0742,1.4048,80.74182,156.97467,-52.2079
14854,-3.53444,-9.91499,-3.01849,43.51041,118.94981,-46.2875
14881,-2.64978,-9.77134,-9.47565,-90.27856,82.14563,-33.5922
14906,-2.88202,-10.39383,-2.45466,-112.92258,113.76181,-26.39006
14932,-2.75992,-10.80922,0.77033,-122.01682,132.13338,-29.86906
14959,-3.38959,-11.73817,2.40198,-117.9885,151.72566,-30.2963
14985,-3.27706,-11.29405,2.89519,-106.02561,209.83107,-28.40421
15012,-2.97659,-10.60212,1.50176,-102.54662,207.87796,-19.06584
