timestamp,ax,ay,az,wx,wy,wz
22,-1.30065,2.0644,10.63385,-12.91656,32.90555,17.47893
44,-0.63746,2.0656,10.25915,-30.49467,26.67997,13.14544
67,-0.7416,1.99856,11.53886,-36.04886,16.54815,3.99017
91,-1.42156,1.27791,13.23036,-15.72417,16.79228,5.0888
114,-1.54725,0.44951,13.57393,16.68547,32.47831,16.19719
139,-1.98419,-0.00898,12.4702,15.46477,71.72388,40.97745
165,-1.64781,0.16101,8.23965,-9.74273,91.43823,53.61172
189,-0.86491,-0.73562,5.17866,-46.79104,16.97539,58.73866
214,-0.29628,-0.52613,5.58328,-76.39307,-94.04748,54.64931
239,0.00658,-0.67217,6.47871,-76.69824,-96.18371,73.87537
262,0.14904,0.2903,13.46379,-10.10894,46.8826,93.58971
286,2.71802,0.05567,7.92122,22.23967,12.88604,46.34854
311,2.37684,0.4124,6.2369,0.20599,-0.48065,-60.15773
337,-1.45986,-0.45789,5.6156,0.93841,-83.54944,-29.57914
360,0.0832,-1.32459,5.59884,11.25335,-176.68901,-17.73833
383,0.06883,-2.0225,3.97318,10.27679,-232.90234,-0.46539
405,0.79188,-1.98898,3.52666,3.37982,-284.72116,29.44181
428,2.13144,-1.55204,3.36266,-8.21685,-321.83051,38.96329
450,3.06039,-1.76632,3.72059,-11.02447,-375.66345,60.69179
473,3.99652,-3.4267,4.48554,-3.33404,-404.10583,82.9696
497,4.6657,-4.72077,5.11401,7.95745,-421.98911,129.11215
521,8.02716,-5.66408,7.13113,21.32414,-387.62634,167.74738
545,8.65444,-6.32967,6.13035,25.16935,-335.62442,191.61211
570,7.97688,-7.15447,3.6344,25.04728,-344.77969,237.32741
595,11.46164,-7.06349,4.89255,61.91249,-334.40375,235.19118
621,14.7812,-6.50564,7.16944,90.90417,-293.8154,214.43922
644,15.1535,-6.97132,2.82157,81.87097,-264.51852,209.73952
668,16.45595,-6.43382,2.99515,85.89928,-209.3428,190.57451
692,18.05647,-5.32889,3.17112,99.14391,-171.74518,159.01936
716,18.5401,-2.61986,2.24576,109.15366,-130.36337,94.50523
743,15.80712,-0.83977,-2.12725,86.0824,-80.74182,38.1088
767,13.38778,-1.56042,-3.89177,45.18887,-40.33658,7.28607
796,11.74535,-2.33734,-4.49152,16.74651,-39.42105,-12.85552
821,9.79647,-3.58711,-5.38456,4.29535,-71.34241,-26.95463
845,8.77654,-4.22756,-4.0055,3.07464,-90.08019,-31.65434
869,7.9673,-4.47895,-2.62045,6.06536,-83.73254,-34.82816
894,6.70915,-4.65612,-1.71185,8.75091,-60.96645,-33.79057
920,6.3596,-4.51487,-2.54264,-1.19781,-30.8151,-38.73441
946,5.25467,-5.21397,-4.45322,-38.73441,17.40264,-28.96879
971,4.46818,-5.62338,-5.15112,-72.24268,50.66677,-17.8604
996,6.40629,-4.67408,-5.33428,-88.7832,66.65797,-32.26469
1024,8.06427,-3.85047,-4.69982,-89.94287,57.25856,-49.72073
1050,8.92858,-3.31178,-3.83671,-73.58545,29.06034,-71.02198
1075,8.03075,-3.52965,-2.05183,-25.61186,-17.50945,-66.44434
1100,10.70867,-1.37487,0.32441,23.82658,-47.41665,-84.93799
1127,9.42058,-2.14939,0.43455,70.21326,-64.8727,-85.12109
1155,8.3803,-2.70844,-0.58778,92.06384,-52.23842,-66.07814
1182,9.23982,-3.83491,-4.29041,50.68203,20.69853,-56.92287
1209,9.23264,-4.48254,-7.13831,-4.98199,60.18825,-53.07766
1235,10.75655,-5.32411,-4.89734,27.54972,50.30056,-59.91359
1260,10.16997,-7.36636,-3.04902,56.78554,6.11114,-51.97903
1283,7.844,-7.35199,-2.29963,57.88417,-5.6076,-9.49859
1306,7.44178,-6.98568,-3.89058,37.55948,-5.11932,19.00481
1364,8.36115,-3.67211,-0.70629,69.29774,-7.98797,-1.8692
1399,8.3803,-3.45423,0.79966,41.03848,27.7786,-4.3106
1420,8.93576,-3.15376,0.94691,25.53556,41.69461,-8.33892
1441,9.909,-2.30502,1.3216,13.20647,54.45095,-13.95415
1475,9.63487,-3.7176,0.84994,12.35198,50.5447,-30.25052
1508,6.91505,-4.59268,-1.12168,-13.09966,56.89235,9.66644
1529,6.91745,-4.76865,-1.20428,-2.72369,34.18729,-0.8316
1551,8.50241,-3.93906,-0.89064,11.43645,29.36552,-11.93999
1575,7.68,-0.74041,-0.47046,23.3383,44.31912,-12.06206
1597,3.96061,-0.56204,-0.6596,28.34318,41.51151,18.45549
1619,6.87315,0.69252,0.70988,39.3295,38.09354,15.40374
1641,6.1106,1.21685,0.10175,39.69571,25.70341,8.68987
1662,1.28748,0.00658,-0.66319,15.70891,14.16778,82.17615
1684,-0.87568,-4.01807,-1.38026,-42.64066,72.57838,178.97783
1706,3.36685,-6.32488,0.00838,-76.88136,132.63692,231.22389
1728,9.87548,-6.84442,3.85227,-91.28564,173.34735,217.55202
1750,13.18547,-7.41185,3.8822,-93.42187,194.70964,163.53595
1772,17.02936,-6.57029,4.45322,-50.69729,146.24776,45.00577
1794,11.82197,-7.54473,-0.60214,-34.09574,115.60812,6.43157
1815,9.01956,-9.28172,-1.80523,-36.78128,89.60717,-1.50299
1836,8.04751,-8.91182,-1.15999,-55.76321,78.98706,8.01849
1859,8.03674,-7.7614,-0.74819,-77.00343,49.26297,17.601
1880,7.95653,-4.61782,2.96881,-52.65041,11.78741,35.30119
1901,6.50445,-4.56874,6.61039,18.15032,1.83868,97.7401
1923,7.95055,-5.72633,6.5673,64.47597,12.51983,130.82112
1945,10.37946,-6.65289,5.36062,85.83825,9.59014,96.51939
1968,12.74972,-5.34685,1.38505,-20.36284,50.97195,41.16055
1991,9.68275,-5.287,0.82121,-54.66457,-0.11444,55.3207
2013,8.93935,-5.90709,-8.1738,-179.11517,-151.48152,48.5458
2036,6.5655,-8.02836,1.02592,-196.44914,-181.69389,45.61612
2060,5.23313,-8.72986,2.82875,-149.57416,-225.82228,63.80458
2086,5.31932,-7.88231,0.89543,-107.45994,-264.9458,41.70987
2111,7.82485,-6.91864,-2.4373,-90.85839,-122.85605,-43.55618
2138,3.47099,-9.40622,1.93332,-27.44291,7.14874,-20.85112
2164,4.08152,-11.62804,3.6763,6.18743,91.07201,-18.16558
2191,5.42586,-14.35264,-0.57581,-61.92775,65.43727,-41.29788
2216,7.64289,-12.79162,0.46926,-52.83352,-39.60416,-80.05518
2242,5.02842,-7.20355,1.85192,-1.44195,-67.00893,-67.72609
2269,1.25277,-7.07187,0.63327,15.58684,-93.00988,-26.16117
2292,-0.58838,-6.41347,0.31484,29.99113,-97.4044,5.76019
2317,-0.32262,-6.51402,0.59017,46.53164,-83.36633,48.97305
2341,0.54289,-6.65049,-0.17717,65.51357,-92.88781,75.03503
2366,0.72484,-6.75704,-1.04387,77.11024,-74.4552,110.4354
2394,2.48219,-6.59902,-5.88495,64.59804,-21.5988,154.68587
2420,9.22785,-8.0535,-12.09551,-19.20317,22.34648,132.28596
2447,14.73571,-10.56382,-13.43147,-71.51026,95.83275,44.57852
2473,13.03583,-11.90816,-4.0055,-26.34428,176.09393,5.0888
2498,2.53726,-11.64959,-8.05649,-61.80568,171.82147,25.29142
2523,3.52845,-11.20187,-0.5363,-2.05231,74.83668,38.96329
2549,1.52451,-12.0147,5.05536,18.76067,-17.75359,77.47644
2574,5.31214,-6.94618,0.07302,53.24551,-154.83846,-24.51323
2598,2.29784,-7.267,5.21816,67.34461,-66.0934,-57.35011
2624,1.40719,-7.02519,4.42329,65.9408,27.04618,-95.5581
2650,-5.22235,-12.15835,-1.00556,68.80946,55.42751,-45.14309
2676,-4.76147,-12.12723,-1.82199,45.67715,104.4387,30.2963
2704,-0.92476,-8.89506,-1.04627,14.79339,169.86835,28.34318
2729,1.00736,-7.34362,-0.07901,-3.51715,192.93962,2.58636
2754,1.90399,-9.03751,0.72903,-22.19389,133.67451,-24.14701
2780,1.48859,-10.25856,1.84593,-35.0723,104.92699,-23.90288
2807,1.81181,-10.8583,3.32674,-32.32572,128.18137,-4.67682
2834,3.6769,-11.15279,3.20224,-29.70121,139.53389,33.83634
2863,4.67647,-10.36869,3.62003,-22.80424,140.69356,65.69666
2888,5.53719,-9.73063,3.62003,-7.78961,134.89522,91.57555
2916,7.267,-9.02674,2.86227,15.3427,118.96507,103.53844
2943,9.02913,-8.81725,2.89339,33.53117,154.30438,75.03503
2968,10.7769,-8.34798,2.30322,25.90178,234.13831,20.95793
2993,6.62296,-6.65169,-3.82234,-43.92239,247.9933,-25.06254
3019,3.86484,-6.9354,-3.99233,-78.77344,190.80339,-34.46195
3046,2.35889,-7.95055,-1.2797,-53.93215,85.1516,-22.07182
3074,2.97061,-8.59459,1.23421,-8.15582,12.21465,-13.1607
3100,4.26108,-8.33601,0.34716,-9.8648,-27.58024,-30.18949
3127,5.9466,-9.46607,0.17837,-31.53226,-10.49041,-69.67921
3152,2.58634,-13.14955,-0.65481,-77.97998,97.35863,-85.42627
3177,0.7416,-13.64396,-2.45525,-164.64984,187.62956,-89.94287
3204,-0.07721,-14.84465,-2.67313,-198.09708,219.24576,-89.57665
3228,-2.54085,-15.57488,-1.47124,-188.75871,221.2599,-74.8672
3254,-3.93068,-14.24011,-2.28886,-187.29387,163.52069,-28.35844
3280,-3.50571,-12.94006,-1.25217,-177.101,69.28248,12.16887
3305,-2.06081,-12.0578,0.36631,-150.4897,18.74541,37.68155
3329,-0.11313,-9.82401,3.36026,-120.9487,20.02715,57.21279
3354,0.83139,-8.29531,4.22217,-84.2666,40.35184,60.99696
3381,1.72442,-7.49086,4.49152,-53.50491,76.60669,56.60244
3408,2.91793,-7.38312,2.87065,-62.66017,123.60374,43.96817
3434,4.72915,-7.39748,0.7015,-80.05518,144.96602,23.09416
3459,4.42987,-7.72669,1.20069,-68.64161,161.50653,20.77483
3487,3.66971,-7.56747,0.662,-53.74904,167.79315,24.80314
3513,3.86723,-7.53276,0.41779,-31.71537,152.65643,24.86418
3540,4.6226,-7.82365,0.32441,-13.64898,150.64229,20.71379
3565,6.15849,-7.77697,-0.71108,-25.856,185.00505,0.20599
3592,8.71908,-7.13532,-4.89854,-60.58498,239.1432,-22.92631
3619,7.88111,-6.89231,-5.97114,-64.00294,232.97865,-20.48491
3645,7.45614,-6.23989,-6.6463,-30.67777,123.48167,-6.3858
3672,6.8947,-6.58705,-3.78284,6.00433,25.52031,5.39398
3698,6.01842,-7.24426,-2.33914,8.26263,17.64678,1.85394
3724,4.53761,-7.68239,-1.05225,5.39398,51.5823,11.37542
3750,4.14376,-10.5722,-2.0626,-5.22613,137.33662,27.00041
3777,7.41544,-12.04224,-4.26886,-22.07182,169.38005,-11.63482
3802,6.90428,-11.64839,-1.68791,-12.1231,125.37375,-43.86136
3828,0.85892,-9.07343,0.50518,1.85394,62.20241,-19.56938
3861,-0.01856,-8.86513,0.47285,6.91986,-16.04461,13.75579
3887,0.93434,-9.98203,2.1452,0.69427,-35.63688,40.42813
3913,3.14538,-10.38545,3.25851,13.63372,1.59454,32.98185
3938,4.09229,-10.11849,3.06697,21.32414,45.23465,20.83586
3964,4.41551,-9.93294,2.28167,20.65276,99.37279,17.78411
3990,4.24193,-9.38826,1.73101,16.86858,146.675,23.03312
4017,4.0887,-8.68556,0.52313,1.54877,164.00897,29.01456
4043,4.05039,-8.18637,0.3711,-9.62066,164.80243,32.98185
4071,5.038,-8.40185,0.36631,-11.93999,133.06418,37.98672
4096,5.4905,-8.26658,0.55905,-4.73785,97.11449,41.03848
4121,5.8233,-8.21271,0.54947,0.08392,72.02906,42.8085
4147,6.56909,-7.73986,-0.39863,-5.04303,48.71365,32.85978
4172,6.38593,-7.69197,-0.30167,-7.30133,26.92411,16.31926
4197,5.13377,-8.06307,0.11851,-4.73785,21.36992,18.8217
4224,3.98455,-8.97048,0.23942,-3.94439,9.71221,27.06144
4249,4.32094,-8.95372,0.79727,6.06536,-10.97869,25.65763
4275,4.03363,-9.18236,1.69629,29.80802,3.6087,29.80802
4301,3.74872,-9.07821,1.42096,32.85978,20.08818,32.61564
4327,4.34248,-8.73345,-0.66319,14.36614,40.2908,20.28654
4354,4.51965,-9.36432,-0.67277,0.75531,68.61109,12.47405
4380,4.19045,-10.25018,-0.7039,-9.68169,77.94946,14.54924
4406,4.28023,-10.93252,-1.36948,-16.15142,46.45535,20.40862
4433,5.50128,-11.55023,-1.16957,-15.72417,-42.35074,26.6342
4459,7.72908,-11.02111,0.52912,-6.50787,-19.64568,-10.16998
4487,8.25581,-8.28693,-3.35547,-61.56154,15.02227,-65.95606
4514,5.4929,-7.09701,-7.53216,-159.33978,-17.14324,-107.3989
4541,1.55444,-12.50432,-0.05746,-161.47601,-61.14955,-126.13668
4568,0.34297,-14.7405,2.19309,-116.18797,-160.3316,-92.75048
4594,1.0744,-14.865,2.91015,-89.51562,-196.89163,-55.82424
4620,3.0987,-13.87979,4.40294,-78.77344,-61.69887,-45.14309
4646,6.12736,-9.02434,3.05859,-88.35596,102.36351,-82.49658
4672,6.49248,-7.73507,2.40258,-70.41163,152.47333,-122.71872
4699,5.038,-7.97329,1.23182,-69.43507,121.58957,-119.42283
4724,2.00694,-8.81844,-3.90973,-21.76665,-99.17443,-87.50146
4750,2.73957,-8.57783,-1.12049,23.27727,-171.74518,-71.69337
4775,2.8485,-7.8871,0.44293,47.26406,-173.88139,-58.08253
4801,1.0732,-6.44699,2.41336,61.60732,-142.57039,-36.90335
4827,0.26396,-5.57071,2.10211,62.21767,-97.77062,-14.5645
4852,-0.21847,-4.75907,1.3635,53.91689,-50.59048,8.68987
4878,-0.48542,-4.39276,0.18914,33.53117,10.32256,31.27287
4903,5.78499,-6.48051,-4.71059,15.58684,94.12377,21.69035
4927,12.9233,-7.63092,-10.29746,-7.11822,101.75316,-38.67337
4953,15.61199,-9.83718,-12.25352,15.40374,-43.44937,-58.0215
4980,9.07941,-8.06906,-4.59806,45.12783,-70.06068,-9.01031
5007,6.53438,-6.86717,-3.91332,26.69523,-24.28435,-10.96343
5035,5.43663,-10.18074,-5.38815,-42.45755,51.52126,-3.76129
5061,4.18806,-13.71339,1.6915,4.41742,-13.23699,22.23967
5087,1.27072,-8.70831,3.86424,38.59708,-3.53241,56.78554
5113,-0.6195,-6.79654,2.92093,21.32414,79.29224,93.28454
5140,0.09038,-8.11215,0.8679,-17.06694,99.55589,101.58531
5166,1.18573,-9.81563,2.93888,-9.07134,118.90403,81.38269
5193,3.00412,-11.47122,4.2126,36.52188,134.40695,58.6166
5220,2.6426,-9.43495,1.47842,55.5038,95.0393,78.14783
5246,4.05518,-8.66162,1.49518,63.43837,116.03538,82.72546
5272,6.09863,-8.76817,0.58059,44.33438,164.13104,59.59315
5300,5.23911,-9.35953,-0.76614,18.6386,133.67451,42.19815
5328,4.2934,-8.81844,0.14964,33.47013,72.15113,47.20303
5353,3.96061,-8.10258,-0.07302,42.62539,13.25225,45.18887
5379,3.22319,-8.37192,-0.26456,42.38126,-19.88982,45.98233
5405,3.10229,-8.76577,0.18196,37.37638,-28.43473,48.91201
5431,3.23876,-9.09857,0.63805,41.22159,-32.95133,50.92617
5457,3.39917,-8.47966,1.11929,47.3251,-25.44401,51.41445
5484,3.5943,-8.48206,1.22344,47.63027,-8.78143,49.03408
5510,3.43149,-8.62212,1.44011,47.99648,14.35088,46.95889
5536,3.58592,-8.38509,1.5706,48.85098,41.51151,29.56388
5563,3.58951,-10.77451,-0.01676,25.90178,70.0149,27.18351
5590,4.10306,-11.54305,-0.72544,-7.05718,104.62181,16.01409
5618,4.02405,-9.61452,-0.75298,-21.94975,143.196,2.76947
5643,3.86125,-9.13089,-1.67115,-22.74321,99.739,-5.10406
5668,3.20883,-10.00597,-2.71742,-41.17581,-8.84246,15.3427
5694,4.19165,-11.85788,-2.62405,-58.08253,-109.36729,38.65811
5721,10.29088,-10.63564,1.88783,-41.90823,-58.58608,-30.31156
5747,10.71465,-9.38707,-0.97923,-93.05566,2.99835,-110.14548
5774,5.02842,-9.02075,-6.4404,-192.48184,-8.53729,-139.99165
5801,0.744,-13.97316,2.01711,-151.95454,-94.53576,-129.61568
5827,0.64464,-15.20617,4.08331,-90.67529,-146.65974,-95.06982
5852,1.39522,-16.08125,2.81438,-95.7412,-117.17978,-61.56154
5879,4.2958,-11.24736,2.4792,-101.60057,-47.78286,-69.43507
5904,4.2515,-9.0028,2.91853,-92.68945,33.76005,-99.89159
5931,3.85885,-7.71711,3.3842,-55.94631,64.70485,-121.86422
5958,2.28826,-7.99364,1.54665,-14.3814,59.15065,-117.65281
5983,2.26192,-8.18518,-2.78805,-18.47075,-34.90445,-95.80223
6008,1.77829,-8.32524,-1.57898,21.56828,-155.50983,-69.25196
6033,1.15939,-6.8145,1.30005,56.3583,-204.03275,-52.22316
6060,0.42318,-6.39431,2.15119,73.44813,-179.98491,-29.57914
6086,-0.59795,-6.10342,2.13204,66.7953,-98.62511,1.6098
6113,-0.98821,-5.53958,0.68594,54.16103,-31.36442,24.74211
6139,4.52085,-6.80851,-4.2928,52.81826,26.19169,20.95793
6164,10.99118,-8.27616,-9.52773,22.05656,-12.68767,-25.79496
6190,13.69543,-10.7781,-13.79778,3.80707,-28.86198,-20.48491
6216,7.57226,-8.68676,-4.21858,28.52629,-15.00701,-25.61186
6242,5.43185,-5.99688,-3.48237,28.28214,-1.64032,-24.26909
6269,4.90273,-4.68007,-1.06662,50.25478,22.65166,-5.95855
6296,8.15166,-10.95647,-2.9317,5.02777,35.46903,16.80754
6322,10.05385,-14.04139,-2.58454,-52.71145,68.91627,-13.58794
6347,3.18728,-13.16871,6.55413,60.50868,104.92699,23.52141
6373,-2.30262,-7.65127,-2.78326,44.51748,-9.69695,48.17959
6399,-1.74118,-8.0523,-0.54708,9.48333,-23.36882,55.19863
6422,-1.14742,-10.16638,2.41575,11.74163,15.99883,68.80946
6445,0.27473,-11.53826,3.7565,35.48429,39.13113,87.54723
6468,1.60112,-10.47523,3.24534,57.82314,53.8406,96.27526
6492,4.89315,-9.78091,1.4449,65.81873,102.1804,90.84313
6514,5.91188,-9.38946,0.3723,52.0248,125.86203,75.58436
6536,5.9885,-9.1261,0.14365,47.81338,119.14817,68.016
6559,5.32889,-8.95012,0.03112,51.23135,100.65453,71.25086
6584,4.88238,-8.61494,-0.52553,57.02968,62.50758,78.69714
6611,5.14454,-8.23306,-1.62806,50.49892,5.68389,68.56532
6637,4.83449,-7.57944,-1.55623,50.62099,-50.40737,58.73866
6663,4.16651,-7.36636,-0.62608,53.18447,-81.2301,52.39101
6690,3.77745,-7.31129,-0.07063,50.25478,-92.94884,45.79922
6716,3.1789,-8.79211,0.67516,36.09464,-55.41225,43.66299
6742,3.23397,-9.22426,0.8248,21.75139,-17.99773,37.74259
6768,3.28305,-9.71747,1.10852,20.65276,-1.94549,29.93009
6794,3.29143,-10.75535,1.55743,23.64348,7.51495,23.52141
6820,3.02807,-10.80922,0.97324,7.04193,26.31376,28.34318
6845,3.28664,-10.67156,0.85712,-2.11334,46.45535,33.22599
6870,5.08588,-10.44411,0.26217,-9.07134,49.26297,30.41837
6895,6.08666,-11.58494,-0.12929,-16.45659,19.66093,29.56388
6920,8.13131,-11.59811,0.56264,-7.85064,39.92459,0.45013
6947,9.22666,-10.15561,-1.16717,-33.97367,48.83572,-47.03518
6973,6.41107,-7.22391,-12.02727,-155.3725,-9.51385,-97.51122
6999,4.31854,-9.70071,-3.69306,-140.84615,-153.25154,-139.86958
7025,2.63901,-12.41334,1.05943,-89.63769,-291.49606,-128.27292
7050,3.45902,-16.40926,4.38378,-70.47266,-295.64645,-102.45506
7076,3.60627,-16.49306,4.57053,-88.47803,-127.31161,-89.21045
7102,4.65014,-12.53305,7.25802,-255.71422,416.75537,-140.72408
7128,0.00778,-10.83795,10.5309,22.54484,250.06847,-104.34715
7155,4.56275,-8.18039,-14.29578,-7.54547,-70.54896,-138.40474
7181,1.68731,-8.82443,-6.43681,-6.93511,-221.79396,-99.83055
7208,2.49655,-8.77894,-0.02035,28.70939,-194.57231,-90.00391
7234,2.16017,-7.99005,2.69467,30.90665,-130.18027,-81.52002
7261,0.18495,-7.14609,2.35589,44.63956,-134.69687,-57.8384
7287,-1.12228,-6.33925,2.27928,53.36757,-106.49864,-22.80424
7312,-2.01532,-4.85245,0.64045,46.22647,-52.78774,17.35686
7339,-1.74238,-4.52684,-0.92775,36.94913,-6.95037,39.45157
7363,2.33495,-5.35044,-2.82157,17.90618,86.55541,8.87298
7391,16.56728,-9.00998,-13.38239,-21.1563,79.17017,-75.90479
7415,13.22018,-13.30278,-8.35576,40.42813,-39.23795,-34.58402
7440,10.63085,-10.09336,-5.56652,44.63956,-52.78774,-7.97271
7467,7.40586,-6.32488,-4.75728,24.49797,-9.20867,-5.77545
7494,2.13024,-8.29052,-0.68833,8.32366,58.90651,29.68595
7519,4.26587,-14.67107,-2.33554,-5.10406,18.92851,32.85978
7543,14.05337,-15.029,-1.90219,2.28119,52.9861,-15.90728
7570,-0.17897,-6.92463,3.01191,32.06632,60.6155,15.28167
7596,-2.62105,-5.4498,1.51074,36.52188,51.21609,64.65907
7622,-2.16017,-5.87477,-0.19034,-1.07574,50.30056,75.34022
7649,-0.13707,-13.07773,1.9824,-23.04838,65.37624,77.59852
7675,2.27868,-13.69304,3.95163,20.65276,111.33567,69.2367
7701,2.82695,-11.5598,4.59806,70.76258,125.43478,72.22742
7727,3.37882,-8.70472,0.25738,63.98769,108.89426,73.99744
7754,3.7559,-8.42939,0.02753,37.13224,112.19016,80.34509
7779,4.40593,-8.71549,0.64883,28.83146,128.05928,86.0824
7806,5.54198,-8.71669,0.4142,27.24455,135.32246,85.10583
7832,5.81851,-8.40784,-0.18555,22.60588,113.41087,80.16199
7858,6.07229,-8.13969,-0.46567,22.85002,67.39039,71.73914
7885,5.83407,-7.65845,-0.29209,29.38078,14.10674,63.07216
7911,5.39473,-7.3903,-0.28132,34.44669,-18.60808,48.5458
7937,4.75907,-7.87034,-0.12929,34.6298,-31.36442,41.28262
7964,3.94864,-8.3803,-0.34596,25.41349,-42.2897,38.35294
7990,3.29023,-9.57262,-0.17478,12.10784,-44.67007,33.77531
8016,3.3034,-10.38066,0.33758,6.49261,-50.71255,30.90665
8043,3.58472,-10.75416,1.01754,8.87298,-54.8019,24.00969
8069,3.55838,-10.25616,2.9317,9.05608,-7.49969,29.38078
8095,4.05997,-9.83718,3.43688,8.32366,61.59206,30.60148
8121,4.63697,-10.29806,2.40737,5.33294,78.98706,33.04288
8146,7.26939,-10.90619,-0.21907,7.40814,71.11353,19.30998
8172,8.75739,-10.06702,-2.30322,-11.69585,73.18873,-24.8184
8198,9.08181,-7.95414,-7.77278,-138.1606,6.23321,-105.38475
8224,2.96223,-10.70747,-2.94846,-158.11908,-92.09435,-145.60689
8250,1.52451,-13.19026,0.9505,-116.73727,-174.0645,-145.30171
8276,1.35811,-14.87936,2.67073,-81.64209,-250.11426,-119.97214
8304,2.973,-17.53094,3.02986,-98.79295,-125.05332,-104.28612
8330,1.898,-15.24328,1.94529,-124.36667,13.8626,-102.27196
8356,0.50458,-12.45643,2.57856,-114.35691,92.10961,-95.37499
8383,1.11151,-7.97688,3.28844,-48.50003,63.30104,-97.20605
8408,2.25354,-6.87196,-1.10732,-51.42971,65.3152,-106.78855
8434,3.58113,-6.82647,-2.81678,-49.90383,-18.05876,-116.73727
8460,2.82336,-7.75422,-0.87029,1.48773,-141.41072,-84.99902
8486,0.61112,-6.95815,1.11929,38.96329,-167.10651,-39.95511
8513,-0.09278,-5.92625,1.94649,47.63027,-127.55575,-9.13238
8539,-0.91399,-4.88716,2.0231,52.81826,-93.92541,19.37102
8566,0.02574,-3.39199,0.16281,44.27335,-20.98845,37.55948
8592,4.34607,-4.24791,-2.51511,18.69963,102.85179,8.32366
8618,12.62522,-5.32411,-8.63828,-47.15725,154.91475,-82.55762
8643,12.59649,-14.10125,-10.01255,26.93937,-68.90101,-42.88479
8668,11.22581,-9.87908,-6.28837,64.96424,-127.25058,-14.07622
8695,6.74028,-7.58304,-5.00388,10.76507,-64.07924,-8.8272
8722,5.27742,-11.51312,-0.34716,-9.25445,-7.92693,1.18256
8747,8.59339,-11.48558,4.87938,38.35294,73.06666,-0.46539
8772,2.56,-10.78528,0.61292,12.04681,31.25761,38.04776
8799,-1.84174,-8.34679,2.6432,29.80802,93.57446,81.99304
8823,-2.42832,-8.8759,-0.55067,6.73675,108.9553,97.55699
8850,-0.54049,-10.52192,-0.07781,-32.50882,82.95435,78.20886
8875,1.08876,-12.39777,3.54701,15.76995,125.25168,75.46229
8901,3.72717,-9.96167,2.94008,52.39101,132.88107,85.53308
8927,5.14693,-8.64965,1.79685,55.56484,133.00314,82.60339
8954,6.62057,-8.5455,1.12168,42.8085,154.79268,71.98328
8979,6.56191,-9.19912,-0.1221,29.86906,126.3503,71.98328
9003,6.2746,-8.74063,-0.00599,42.50333,88.08129,72.28846
9027,5.76823,-8.04871,-1.00437,46.95889,47.61501,64.17079
9052,5.10623,-7.50642,-1.94409,42.93057,-4.44793,49.94961
9080,3.43987,-8.08103,-0.9493,42.25919,-64.8727,47.26406
9107,3.28425,-8.44854,0.01317,50.31582,-100.57823,47.26406
9133,3.18848,-8.41981,0.64883,58.49453,-98.50304,43.41885
9159,2.48458,-8.37671,0.61172,48.7289,-56.14467,41.03848
9185,2.36008,-8.76098,0.65841,30.05216,0.25177,36.39981
9211,2.5995,-9.65282,0.85353,16.44133,44.13601,30.78458
9234,2.73717,-10.73021,1.08338,13.99993,61.34792,33.83634
9258,2.58993,-10.88344,0.577,6.24847,49.14089,41.34366
9284,4.15574,-9.98442,-0.22984,-0.58746,26.98515,44.33438
9311,5.34446,-9.87668,0.60932,5.88226,21.06474,35.97257
9339,6.59423,-10.24898,-0.23942,-0.22125,23.26201,26.57316
9363,7.46452,-11.15997,-0.57102,-21.82768,10.07842,11.19231
9388,9.28052,-11.00196,-0.02634,-24.39116,34.85868,-36.84232
9414,9.51516,-9.77373,-1.6532,-76.57617,81.55054,-88.05077
9442,1.95546,-9.10814,-9.10874,-175.63615,4.6463,-120.21628
9467,0.43634,-11.33475,-0.99718,-128.94431,-133.53719,-122.47458
9492,0.80984,-13.44284,2.66834,-78.40723,-190.91019,-107.0327
9518,2.89279,-16.04175,2.73298,-82.61865,-133.29306,-92.75048
9544,2.61866,-14.09766,2.58933,-101.05125,-3.47137,-86.89111
9569,2.53965,-11.41735,2.62045,-99.52538,108.9553,-98.1826
9594,2.25833,-9.59177,2.73059,-83.47314,177.49774,-112.64793
9620,1.72442,-7.14849,0.08978,-38.73441,106.45287,-114.54001
9647,2.3529,-6.91984,-4.87459,-38.42923,-35.20963,-107.70409
9672,2.22242,-7.94336,-2.67552,-0.03815,-137.32137,-80.60449
9698,2.42114,-7.88231,0.80685,29.99113,-165.39752,-58.08253
9724,1.88364,-7.24066,0.80206,38.41397,-163.26129,-43.55618
9750,0.70809,-6.79774,1.71425,43.47989,-111.74766,-15.84624
9775,-0.19094,-5.76464,0.52433,38.2919,-54.55776,8.32366
9800,1.157,-5.39354,-1.1157,36.8881,-7.13348,19.61516
9824,5.52402,-5.87597,-3.43927,35.42325,66.23073,-6.87408
9849,11.86746,-5.87597,-7.46273,13.99993,56.34304,-59.66945
9876,10.33756,-10.43214,-8.13789,35.17911,-66.64271,-11.20757
9901,10.95886,-9.0016,-4.02106,56.66347,-72.86829,-4.55474
9928,7.7195,-7.93139,-3.62722,28.038,-16.96013,-16.8228
9955,5.4079,-11.98597,-1.83755,7.71331,0.25177,-12.3062
9982,5.55874,-13.11005,-2.26013,2.76947,-14.94597,6.98089
10007,2.81498,-11.96323,0.4944,12.16887,27.71757,40.30606
10031,-0.21249,-9.34996,2.6025,27.24455,52.74197,70.2743
10058,-1.66098,-8.4234,1.50954,13.63372,59.761,91.33141
10084,-0.19932,-9.06864,1.80762,-2.66266,72.45631,65.87977
10108,1.42275,-10.45009,3.055,19.30998,113.34983,59.28798
10134,1.61309,-11.00076,3.20105,35.60636,120.00266,85.16686
10160,4.56874,-8.9202,2.13683,50.37686,148.38399,87.54723
10186,6.77619,-8.75859,0.58059,34.14151,181.95329,67.40565
10213,7.43938,-9.0028,-0.76974,15.89202,155.64716,53.97793
10239,5.48212,-8.94414,-0.46567,22.85002,112.61741,55.3207
10264,5.04877,-8.24384,-1.19471,30.72355,50.66677,43.05264
10290,4.18925,-8.25461,-1.46166,28.8925,2.26593,43.90714
10316,3.5943,-8.84239,-0.34596,24.98625,-16.83806,51.71963
10342,3.92589,-8.74303,0.44293,33.34806,-26.66471,54.34414
10369,4.14496,-8.51199,0.71467,36.58292,-34.78238,51.8417
10396,4.14376,-8.27376,0.42617,32.43253,-33.68375,48.48477
10423,3.91153,-8.40065,0.65601,28.34318,-14.6408,48.85098
10451,3.94624,-8.47368,0.79487,38.1088,-16.65495,41.64883
10477,3.07834,-8.71549,0.48363,47.38614,-8.41522,38.78019
10503,2.9323,-9.55466,-1.11809,18.45549,-18.91326,40.30606
10531,3.222,-10.20947,-1.38505,-1.80817,-26.48161,37.25431
10558,3.94624,-9.34038,0.82001,3.31878,-20.5612,17.11272
10584,3.47698,-9.67078,1.04986,7.3471,2.388,7.65228
10611,2.44388,-10.3627,0.48483,-4.67682,26.67997,20.59172
10637,3.52127,-11.22701,-0.41539,-20.1187,6.05011,36.39981
10664,5.46656,-11.86866,-0.43694,-25.30668,-43.87662,34.8129
10691,11.03787,-9.41819,-2.16436,-59.42531,40.84012,-28.78568
10716,7.77337,-8.10497,-7.40167,-152.87007,7.45391,-81.09277
10743,4.06356,-8.5048,-3.76488,-146.76656,-125.78574,-108.98582
10770,2.4762,-10.89062,0.58419,-100.74609,-240.53175,-96.71776
10796,4.09708,-15.05773,4.07733,-73.58545,-255.30223,-76.14893
10823,4.9566,-15.71255,5.05655,-50.69729,-213.12698,-50.63625
10851,7.36636,-9.51396,3.98874,-25.73393,-194.45024,-70.65577
10877,6.73788,-8.32763,3.49434,-34.40091,-157.27985,-97.02294
10903,5.9885,-8.257,3.66073,-47.15725,-91.11779,-118.62936
10931,2.79104,-9.71986,5.64553,-17.67729,-50.71255,-134.68161
10957,0.7009,-10.56382,5.94839,37.55948,-30.26578,-127.84566
10984,-0.94272,-10.23342,3.98395,74.11951,-44.42593,-102.39403
11010,-1.72802,-8.35517,-0.01317,83.33582,-117.97324,-64.55226
11035,-0.00419,-7.70993,0.25259,88.58484,-150.50496,-35.68265
11062,1.08637,-7.57226,1.08816,95.2987,-124.8702,-13.89312
11087,1.62147,-7.50762,0.84755,103.2943,-85.01428,0.93841
11113,3.97019,-8.02836,-3.43688,96.09216,-55.41225,8.99505
11135,5.48571,-8.51438,-6.17105,76.98817,-80.49768,16.74651
11157,6.98448,-9.18595,-6.37576,75.58436,-173.39313,17.05168
11179,9.62649,-9.48523,-3.43807,97.98424,-199.21098,-10.16998
11203,9.2063,-9.0411,1.11809,88.82897,-111.07627,-38.67337
11231,3.26868,-7.92301,1.00556,30.72355,-73.47865,-46.73001
11257,1.51134,-10.33876,0.94332,-5.40924,-29.10612,-35.92679
11284,0.23044,-15.30793,1.52032,2.58636,162.17792,16.50237
11310,-2.55282,-12.33193,-2.77368,2.58636,-48.14907,80.83337
11336,1.23002,-11.91654,0.07542,25.96281,-136.28378,96.76353
11364,3.47459,-10.52192,0.90022,57.64003,-181.14458,82.35925
11390,6.26144,-6.73788,2.37864,91.27038,-181.02251,49.21719
11417,6.24348,-6.78696,1.42455,90.7821,-128.22714,28.038
11443,5.5312,-8.66402,-0.6177,46.71475,-84.70911,24.80314
11469,4.77823,-9.7031,0.20231,33.83634,-51.56704,5.88226
11496,3.19566,-9.19433,0.76495,56.5414,-51.44497,1.73187
11521,1.9818,-8.82203,-0.1245,68.74842,-83.06116,15.76995
11546,1.87406,-8.57663,-1.01275,68.016,-131.64511,28.8925
11572,2.71682,-8.87351,-1.02711,66.97841,-164.72614,34.20255
11598,3.44346,-8.85555,-0.60094,62.40077,-177.05522,34.75187
11622,4.03842,-8.85196,0.27414,54.77138,-155.44879,31.08976
11646,4.77823,-8.78133,1.0319,39.81778,-112.66319,25.77971
11670,4.89076,-8.4222,0.58299,21.20207,-101.24962,16.25823
11694,4.62979,-8.05948,0.53032,14.3051,-124.99227,9.17815
11719,4.06116,-8.56825,1.66158,33.10392,-123.83261,9.48333
11745,3.97856,-9.80964,3.41413,75.52332,-58.15883,3.56292
11769,2.37924,-10.54227,0.66679,79.1244,-39.90933,5.63812
11796,1.06003,-10.14124,-0.76614,55.19863,-31.97477,24.62004
11820,0.40522,-9.91379,-1.97282,22.54484,-77.75111,37.68155
11845,3.07834,-12.05062,-2.21224,-10.10894,-149.16219,49.88857
11872,5.53839,-11.99555,0.08021,-6.99615,-184.19633,56.05312
11898,7.51121,-10.02392,0.64045,4.29535,-170.52448,26.51213
11924,8.4222,-8.44255,-1.42216,-66.20021,-141.10555,-25.48979
11952,5.97533,-8.08702,-4.49751,-114.35691,-215.50734,-59.73048
11980,5.25827,-10.6955,0.4118,-86.58593,-285.81979,-71.93751
12007,4.55557,-13.88577,4.32632,-62.78224,-332.51163,-48.92727
12035,6.1525,-12.62762,5.79157,-52.40627,-250.72461,-49.78176
12061,7.0216,-10.86908,6.5637,-67.90919,-96.97717,-83.47314
12087,6.62296,-9.3751,5.09606,-82.92382,41.81668,-134.74265
12114,4.25749,-10.24299,4.54779,-60.34084,163.03241,-155.5556
12140,2.65337,-10.30165,3.79122,-22.74321,186.16472,-152.2597
12166,0.72604,-10.67515,-7.08923,-23.7808,-4.81414,-123.81735
12192,1.47423,-10.47044,-2.69707,32.18839,-180.53423,-97.63329
12218,2.78027,-9.80246,0.22625,52.2079,-211.35695,-85.18212
12244,2.24277,-8.4653,1.02472,39.3295,-157.95123,-71.5713
12268,0.86012,-7.89907,0.35674,32.67667,-125.11436,-58.75392
12294,-0.26635,-7.5555,0.15203,32.00529,-91.60607,-40.19925
12318,-0.29987,-7.19278,-0.70749,17.601,-33.56168,-26.58842
12342,0.3717,-7.0192,-1.68432,7.59124,13.92363,-17.31108
12369,2.75632,-6.71873,-4.14197,19.79827,13.43535,-1.93024
12395,5.73112,-6.4829,-4.40653,34.75187,0.92316,-5.71441
12420,9.88267,-6.44579,-5.5761,33.71427,-26.42057,-29.335
12446,10.45129,-7.59022,-5.33907,22.54484,-14.15252,-35.74369
12471,9.56065,-6.60979,-3.56616,30.54044,2.20489,-32.20365
12496,8.68078,-5.85322,-3.32674,33.89737,41.14529,-28.78568
12523,10.55424,-9.76056,-3.47997,30.90665,-26.23747,-30.18949
12549,5.1613,-12.24335,-4.13598,-9.25445,-111.74766,14.18303
12575,0.13467,-10.95886,0.86191,39.02432,-40.21451,64.90321
12601,-2.00455,-8.66521,-2.19548,71.55604,49.324,69.9081
12626,-1.42395,-9.06265,-1.72143,19.00481,38.45975,57.579
12651,-0.72844,-9.19314,2.28886,20.22551,63.42311,66.18495
12677,0.83019,-9.42657,3.92888,41.40469,82.5271,78.14783
12706,5.44262,-9.42298,1.70228,51.23135,81.18433,81.01648
12731,7.17123,-9.98562,0.79248,45.2499,105.96458,69.11464
12756,8.04272,-10.28489,-0.46328,38.78019,82.16089,54.16103
12782,4.70999,-8.87231,-1.28449,52.51308,7.45391,34.14151
12807,2.84252,-9.0016,-1.23541,61.54628,-51.99429,31.63908
12833,1.8992,-9.30925,-1.00676,54.40517,-78.42249,44.45645
12858,2.07637,-9.15124,-0.13168,57.39589,-82.14563,48.05752
12883,2.3948,-8.60177,0.66559,62.76698,-70.67103,50.01065
12909,2.62345,-8.56226,0.50877,59.71523,-55.47329,53.48965
12935,2.77069,-8.65923,0.63207,58.43349,-35.69791,55.5038
12959,3.17172,-8.56945,0.91937,57.39589,-20.86638,50.43789
12986,3.37882,-8.3803,1.02711,57.82314,-13.84734,44.57852
13012,3.06637,-8.47966,0.6189,50.13271,4.95147,39.81778
13040,2.50972,-9.22187,0.02035,31.15079,33.27176,34.8129
13066,2.40079,-10.27651,0.0838,26.26799,35.89627,32.85978
13091,2.3517,-11.08096,-0.21189,20.40862,15.87676,35.66739
13117,2.41994,-10.96485,-0.25738,9.84954,4.89044,42.44229
13144,3.73795,-9.86591,0.34237,1.30463,-0.23651,46.34854
13170,4.95061,-9.76774,1.33237,8.20159,17.03642,35.36222
13196,5.64972,-10.26454,1.02711,-3.57818,13.49639,25.47453
13222,7.00364,-11.30602,0.87149,-6.69097,13.8626,3.50189
13246,6.92942,-10.54586,-0.14006,-11.39068,12.94707,-36.90335
13272,6.33326,-9.26257,-1.79086,-35.62162,33.69901,-69.67921
13298,4.01927,-8.53952,-6.52899,-163.85638,-2.37274,-105.20164
13325,0.92476,-11.83514,-2.64918,-168.49506,-104.17931,-111.85447
13349,1.59155,-12.86943,2.44328,-119.85007,-195.91507,-108.68065
13375,1.90159,-13.82472,4.73573,-85.4873,-182.0601,-89.45458
13401,2.30741,-13.77444,4.01149,-76.57617,-52.90981,-79.38379
13426,2.61267,-12.04104,2.32357,-96.53465,84.29712,-96.29052
13451,2.05123,-10.37348,2.3535,-72.792,96.26,-99.52538
13476,1.43353,-8.90703,2.96282,-41.05374,103.76731,-98.24364
13502,4.03243,-7.42382,-1.86508,-39.89407,50.48367,-112.40379
13526,4.29939,-7.98766,-2.27808,-26.52739,-43.26626,-105.07957
13551,3.14538,-8.89745,-1.68312,4.53949,-130.85164,-76.271
13576,1.83695,-8.35995,0.34955,29.80802,-173.69829,-54.05422
13603,1.06841,-7.56987,1.15041,33.5922,-150.99323,-34.95023
13630,0.59316,-6.75584,1.50595,33.28702,-100.33409,-19.69145
13656,0.15143,-6.18482,1.61489,34.26358,-20.31706,-1.74713
13683,1.32938,-6.23151,-1.41378,31.51701,26.13066,12.35198
13708,3.55,-6.84323,-3.41772,31.88322,64.03346,13.14544
13733,6.93062,-7.40586,-4.97395,27.42765,67.51246,-10.71929
13759,11.85669,-8.64247,-9.24282,20.95793,-18.3029,-33.05814
13786,9.47565,-9.24581,-6.76482,34.20255,-86.23499,-18.40971
13812,8.56825,-7.86316,-3.9217,30.84562,-43.44937,-24.75737
13838,6.76182,-7.45973,-5.34984,-10.16998,50.3616,-21.1563
13864,11.04625,-10.09096,-1.53229,25.90178,25.27617,-33.79057
13890,8.40425,-12.91492,-0.05626,25.23039,-76.46936,9.72747
13915,1.65619,-10.93252,0.36033,46.95889,-32.46305,53.0624
13942,-2.71323,-7.29813,-0.14245,56.66347,32.05106,76.25574
13967,-1.4467,-8.64367,-1.23062,6.06536,-7.56072,63.74355
13992,-0.48782,-10.42136,2.05542,24.49797,29.97587,55.99208
14019,2.24037,-11.32278,3.76368,56.96865,87.83716,57.15175
14046,2.71921,-10.4896,1.56581,55.80898,89.11889,69.29774
14071,3.77147,-9.71507,0.91459,52.2079,116.70676,63.01112
14097,4.89554,-9.07821,-0.249,41.28262,122.26096,48.7289
14122,4.31016,-8.98484,-0.41539,35.66739,75.38599,42.8085
14146,4.13658,-9.12251,0.10175,41.64883,56.58718,42.93057
14170,4.02884,-9.16201,0.47764,44.27335,49.38503,45.12783
14196,3.48536,-8.42579,-0.99359,31.27287,20.02715,45.61612
14222,3.27467,-8.67838,-0.42976,22.66692,-0.72479,48.24063
14246,3.29502,-8.98724,0.25977,23.64348,-17.99773,50.74306
14271,3.3848,-9.0028,0.73981,25.16935,-22.27019,49.40029
14298,3.41234,-8.29651,1.04028,25.35246,-14.6408,44.51748
14323,3.23517,-8.50241,0.99838,21.87346,2.69317,39.93985
14347,3.34051,-8.92977,1.13485,24.86418,17.82988,30.96769
14372,3.16454,-9.52832,1.31202,32.61564,29.24345,26.8173
14399,2.15777,-10.41538,0.42856,25.29142,38.09354,35.66739
14423,2.56958,-10.42854,-0.34596,6.73675,31.68485,45.31094
14448,3.81576,-9.56065,-0.00239,2.70843,12.21465,35.42325
14476,4.64176,-9.25419,0.55905,0.20599,10.3836,24.00969
14502,4.62141,-9.4577,0.76016,-1.99127,24.54374,9.48333
14525,4.47416,-10.30644,0.18196,-11.51275,16.67021,0.63324
14549,5.0356,-11.36827,0.21308,-13.3438,12.88604,-15.96831
14575,5.27862,-10.53748,-0.36512,-18.83696,18.68437,-41.78616
14599,4.69323,-9.73782,-1.66277,-55.76321,78.31567,-80.66553
14624,3.35009,-9.49002,-5.21457,-126.86911,99.25072,-110.02342
14650,1.1151,-10.75894,-8.09958,-188.75871,33.57694,-112.70896
14674,-0.69013,-13.29081,1.27012,-142.73824,-83.73254,-91.28564
14699,-0.07362,-13.81634,3.54462,-101.96678,-119.19395,-75.29444
14725,0.67337,-14.04499,4.18028,-87.56249,-39.60416,-63.45362
14751,2.3134,-12.41693,5.0805,-77.30859,177.55878,-66.50538
14775,3.58951,-9.05906,0.16161,-36.65921,147.34639,-83.41211
14800,4.24432,-7.9266,-5.3283,-70.16749,88.69164,-93.91015
14826,3.0963,-7.74943,-2.66116,-48.07278,1.1673,-85.06005
14851,3.61704,-8.2163,0.56862,-14.50347,-37.46793,-85.36523
14876,2.50733,-8.51199,-0.65242,-8.6441,-55.04604,-67.72609
14901,1.87646,-8.20074,-0.30047,6.73675,-66.94789,-44.16653
14927,1.46106,-7.50642,0.02993,15.1596,-73.60071,-23.23149
14951,0.81463,-6.42185,0.41899,13.75579,-44.73111,-6.14166
14976,0.80744,-6.14771,0.73263,21.81242,-9.20867,12.84026
15002,1.63225,-6.20158,-0.21069,25.35246,14.41192,30.84562
