timestamp,ax,ay,az,wx,wy,wz
36,3.00772,0.2077,8.94174,-3.05939,48.91964,-43.0679
76,0.04609,-0.46029,10.12687,4.69207,47.33273,-30.92191
111,-0.3322,-0.45071,8.41023,-7.39288,45.13546,-23.84184
145,0.1239,-0.41599,8.08223,-28.57206,85.17449,-29.51811
178,0.34656,0.05686,9.08659,-12.21465,114.04411,-48.43899
207,-1.58436,-0.11313,9.43375,-1.22833,93.04803,-45.02102
233,-1.63704,-0.22087,9.63965,9.75799,105.74333,-46.24173
259,2.04764,-1.50176,12.87781,48.69839,158.17249,-79.32275
287,3.20404,-2.39839,13.90014,145.62215,220.85555,-159.64496
314,-0.67098,-3.0975,10.72423,254.44774,226.34871,-188.81975
342,-1.321,-2.73597,6.32249,281.91354,181.30479,-218.72694
369,-0.95828,-1.9806,1.14144,163.38336,98.0529,-272.37683
396,-4.86203,-0.76674,3.68168,89.10363,67.04707,-269.26401
423,-5.04279,-0.47944,7.40946,111.56455,79.80341,-276.64926
450,-8.40425,-0.72125,8.69754,166.06891,53.86349,-245.7655
477,-11.94886,0.59795,6.30693,172.35551,-17.12035,-227.39394
502,-12.32116,0.94032,2.87125,75.12659,-60.33321,-197.66985
528,-12.33433,2.94427,2.27868,4.93621,35.43088,-138.58784
554,-13.98154,4.29221,1.43353,-26.86308,72.60126,-83.77832
580,-7.85957,3.14419,5.18045,-17.82988,78.21649,-128.08981
606,-5.50247,0.09996,7.63212,-2.02179,113.37272,-188.08731
633,-0.58,-1.99617,6.93301,21.35466,145.66029,-272.80408
658,-6.31291,-3.5943,5.78858,16.28874,200.34775,-287.87973
683,-11.2306,-5.19482,1.11869,-60.55445,185.63829,-218.84901
715,-10.95287,-4.7471,-2.25115,-138.37422,98.54119,-199.43985
746,-7.06469,-4.54599,-2.04764,-184.27263,59.23458,-224.15907
775,-6.65648,-10.03949,-0.83378,-159.06514,32.62327,-196.32707
800,-6.92583,-10.57938,6.28777,-41.99979,111.66373,-133.94917
825,-6.23031,-9.43974,3.03286,-9.346,154.81555,-139.25923
856,-8.09899,-8.8376,-2.7659,-38.39872,73.27265,-135.41402
892,-9.25778,-10.33876,1.35213,-30.03691,24.13939,-91.77392
926,-4.55676,-9.65043,-0.44951,-15.26641,100.18913,-83.10693
960,-9.45291,-10.11371,-0.8278,-1.59454,59.78389,-24.08598
995,-7.73746,-10.96724,-0.68295,22.51433,-46.96652,-0.22125
1031,-0.50458,-6.89231,1.16418,-12.45879,31.03635,-71.51026
1065,-1.32818,-7.0611,-7.2682,-78.62085,28.04563,-110.26756
1101,-1.92075,-8.06786,-0.64823,-78.31567,10.16235,-96.77879
1134,-2.1865,-7.93139,-1.71844,-32.17313,37.75022,-47.70657
1170,-1.20009,-3.90554,-0.09996,-4.8294,23.10179,-14.74761
1206,-0.52493,-2.48698,-0.16221,-15.26641,59.29561,-31.34916
1241,-1.45268,-4.28502,2.08116,46.74527,71.07539,-22.49907
1277,9.6612,-21.72199,-1.39163,54.98501,15.04515,-126.13668
1311,10.0742,-31.02826,0.07242,40.15347,-22.30833,-197.79192
1342,-4.59866,-9.42657,0.56443,-14.83916,10.46752,69.78602
1375,2.93709,-3.91272,0.10475,-46.45535,63.56807,53.91689
1408,1.38684,-5.95857,-3.47219,2.61688,-64.6667,-8.70513
1442,-4.25749,-13.34468,-9.75458,10.42937,-186.24864,17.72307
1476,-5.67246,-15.25885,-5.84125,-30.76933,-36.34641,65.20839
1503,-1.45029,-11.46763,-1.87765,-11.4212,-25.36009,2.09808
1528,6.08187,-11.03069,1.67175,-8.1253,-57.58663,-36.47611
1553,8.75859,-13.54101,-2.79343,-27.41239,-37.32297,-44.83792
1579,4.2515,-11.3958,-3.12743,-2.81524,-49.77413,9.36126
1606,1.22882,-6.43262,5.31812,84.34289,-29.51048,-15.35796
1632,2.75154,-5.86041,3.31896,56.0226,-7.90405,-43.12894
1658,3.04243,-8.3839,1.8597,27.03092,-30.05979,-55.27492
1684,1.65858,-12.27926,3.41832,43.63247,0.76294,-42.33548
1710,-0.29149,-11.07737,-0.12869,44.42593,12.96996,-45.57034
1736,-0.0018,-8.84957,0.56563,40.21451,36.65158,-43.00686
1762,0.5369,-7.81408,1.35572,52.72671,34.14915,-32.69193
1787,1.734,-8.51558,1.80343,68.83997,1.67847,-27.13774
1813,1.71126,-9.18116,1.54845,80.74182,-33.66086,-26.58842
1839,1.43113,-9.79288,1.14982,80.80286,-43.18234,-38.42923
1865,1.13545,-9.97005,0.46986,69.26722,-23.77317,-46.79104
1891,-0.36212,-9.0028,-1.04686,46.98941,-6.2561,-41.17581
1915,-0.37409,-8.99561,-0.48782,31.30338,-4.18091,-40.68753
1941,-0.48902,-9.34517,0.75597,27.94645,3.57055,-34.76712
1966,-0.38966,-9.92217,1.25037,37.95621,-0.88501,-21.64458
1992,0.32142,-10.16758,0.7835,42.2897,6.74438,-4.49371
2018,1.69689,-9.88147,-0.10594,27.70231,2.22778,0.99945
2043,3.10708,-9.54748,-1.08517,5.18036,-46.66134,-8.70513
2068,3.66971,-10.68592,0.92476,-13.98467,-42.87716,-18.65386
2093,2.3122,-10.95527,2.08116,-17.89092,9.79614,-33.79057
2118,-0.51655,-11.08934,0.99659,-15.44951,-3.69262,-37.26957
2144,-4.53522,-14.64713,1.52331,-29.36552,7.96508,0.32806
2170,-4.81294,-16.19019,-0.74879,-51.94851,-17.42552,34.38565
2195,-1.90159,-15.65628,-6.63373,-118.96507,-39.58127,39.26847
2219,1.57359,-12.66593,-6.69598,-156.19649,4.60815,45.18887
2244,2.5193,-10.33278,2.05363,-148.9333,12.05443,58.43349
2269,3.35607,-11.73698,5.55036,-116.15745,18.34105,75.21814
2294,5.05596,-13.66431,4.10306,-90.70581,-45.3796,74.6078
2319,6.60979,-14.12878,2.09912,-67.45142,-89.99628,67.71083
2344,2.60429,-9.51635,1.67774,-50.05642,-31.82981,62.70594
2370,0.03531,-8.83281,1.80463,-32.41727,6.31713,70.03016
2395,-1.072,-8.42819,-0.13827,-37.30008,-3.81469,77.17126
2419,1.45986,-7.16644,1.80702,-26.92411,28.04563,61.18007
2444,0.9894,-6.38354,1.25755,-24.42167,59.90596,64.84218
2469,1.66457,-6.07589,0.75836,-20.21025,64.11739,61.48525
2494,2.65697,-5.65451,1.01215,-1.77765,69.24433,46.34854
2520,3.16693,-5.17567,1.07799,23.00261,64.84981,30.66251
2545,3.35248,-4.43825,-0.36452,42.04556,31.03635,14.67131
2571,3.04004,-3.99652,0.40282,65.72718,-12.96996,-3.70025
2596,2.99455,-4.9949,0.84815,77.44592,-23.89525,-29.76225
2621,2.78027,-7.14011,-1.45627,43.75454,-16.51,-58.32668
2645,-7.82126,-20.21365,-14.83388,-50.05642,7.11059,-19.69145
2670,-14.80634,-24.92424,-10.11012,-51.09402,33.35569,91.08727
2698,-8.18997,-17.22927,-5.36122,-14.59502,-2.7771,43.11368
2728,1.56162,-6.51163,3.57514,1.45721,-5.2185,-3.88336
2757,7.65486,-11.09174,5.52282,26.84782,-47.82101,-37.5137
2789,2.98976,-12.74134,-5.9047,-15.63262,14.80101,16.92962
2820,4.32094,-7.17123,4.5843,74.63831,11.38305,-32.56986
2852,4.52444,-5.52522,4.79259,70.61,2.53296,-63.20949
2883,6.24827,-7.39988,0.98222,28.31266,-16.20482,-95.31396
2915,-0.22924,-12.16793,1.83216,38.26138,36.1633,-65.40675
2947,-1.73639,-10.08498,0.98222,47.66079,53.3752,-60.89015
2978,-2.11348,-9.17039,0.93553,63.52992,7.4768,-31.65434
3009,1.06003,-8.51199,1.00497,68.22962,-26.70286,-15.96831
3038,1.8561,-8.44974,1.32459,77.81214,-53.49728,-18.71489
3063,2.81259,-9.0423,1.42754,77.26282,-30.426,-40.50443
3088,1.45986,-9.12849,0.26516,74.57728,-11.68822,-45.93655
3113,0.18136,-9.47685,-1.47303,46.6232,-41.35129,-43.18997
3139,-0.60873,-10.11131,0.73562,23.55192,-34.02707,-33.30228
3164,0.23762,-10.02991,1.87885,33.50065,-16.81517,-26.52739
3190,0.95469,-10.12328,1.60352,45.21939,-8.5144,-19.02007
3214,1.84054,-10.42136,0.54169,41.98453,-27.9846,-12.3062
3239,4.15693,-10.86668,-2.9311,17.93669,-66.74189,-19.69145
3264,3.73076,-10.55304,-2.08715,-35.53006,-25.97044,-38.30716
3288,0.91758,-10.82598,0.6614,-46.8826,6.68334,-53.07766
3313,-2.44628,-11.3982,1.60471,-31.86796,-1.49536,-30.61674
3338,-6.47213,-15.59044,0.56084,-47.2488,-8.20922,30.47941
3363,-3.04004,-15.37018,-2.66175,-88.08129,-32.25706,53.36757
3388,1.6107,-12.44446,-4.71478,-138.74043,1.80054,51.10928
3412,2.59831,-10.90978,-1.39881,-129.52412,0.57983,62.21767
3438,3.56078,-10.14842,1.03011,-111.88499,-19.80589,78.02576
3462,4.9554,-12.88978,1.91596,-95.40551,-41.29025,85.96032
3486,6.46614,-13.10885,2.05363,-74.22633,-67.04707,65.87977
3512,4.72196,-11.20905,1.34853,-65.07105,-23.16282,53.61172
3537,1.82618,-9.27574,1.92314,-49.01882,22.61351,56.90761
3562,-0.07721,-8.33841,0.71886,-39.98563,20.41624,69.29774
3586,0.59675,-8.57423,1.14024,-29.12138,33.96604,72.77674
3610,1.57119,-8.64247,1.59155,-16.36504,46.60031,71.43397
3634,1.72921,-8.39826,1.16897,-8.18633,57.03731,71.61707
3659,2.86047,-6.82647,0.70809,-2.75421,62.53047,61.85146
3683,3.77985,-5.71556,0.73562,7.07244,72.05195,41.89297
3708,3.94744,-5.65451,0.54648,30.75407,60.1501,28.28214
3733,3.99054,-5.77422,0.23044,52.11636,30.79221,21.62932
3756,4.52444,-4.62739,0.9487,73.17347,4.85229,0.02289
3781,3.94744,-5.35523,0.26995,85.38049,-7.96508,-28.05326
3806,3.29741,-7.0599,-2.02011,65.72718,-4.85229,-57.77736
3830,1.37487,-10.31961,-6.02561,-11.84844,-5.09643,-52.34524
3854,-5.43304,-17.07605,-13.67748,-49.93435,27.74046,21.93449
3878,-10.55663,-19.93233,-6.41466,-28.93827,-17.05931,92.79626
3901,-2.89639,-9.52114,-2.14221,-6.66046,-18.03587,25.29142
3925,0.19213,-6.84802,2.21045,7.31658,18.82933,-0.95367
3951,5.55634,-11.60889,2.49296,-12.27569,-69.00019,-13.46587
3976,6.29735,-12.00752,-1.75675,-39.80252,16.87621,12.71819
4000,5.85801,-5.67965,0.76076,25.01677,-5.88989,-11.51275
4023,4.45741,-3.48416,6.78218,75.06555,-12.90893,-36.59818
4048,4.24911,-4.19883,6.31411,69.14516,-15.96068,-57.28908
4071,6.30573,-7.23707,3.3465,45.15835,-23.89525,-95.31396
4095,-0.40522,-15.11519,1.79266,47.41665,16.26586,-57.22805
4119,-0.43754,-11.41735,0.03891,33.37858,32.56223,-57.65529
4143,-0.86491,-9.47086,1.05405,46.6232,33.29465,-47.27932
4168,-1.29826,-8.31686,2.09912,61.33265,16.63207,-29.27397
4196,1.64661,-8.55029,1.21685,67.31409,-33.7219,-27.01567
4225,1.82977,-9.25299,1.3198,75.79797,-49.77413,-20.42387
4253,2.16137,-9.44932,0.92835,74.15003,-52.70382,-32.44779
4281,1.46106,-8.73944,-0.43874,60.60024,-36.77365,-43.92239
4310,0.42318,-8.98364,-0.88885,34.35514,-17.79173,-49.29348
4338,-1.20368,-10.14962,1.33417,19.52361,-0.64087,-44.53274
4367,-1.2815,-9.90541,2.08834,40.33658,-7.17163,-30.98295
4396,-0.12989,-10.0754,0.82301,49.0646,-4.18091,-13.46587
4425,1.09355,-10.39383,-0.02454,36.06412,-14.92308,-0.77057
4454,2.87484,-10.40939,-1.59155,6.76727,-52.09347,-12.42827
4484,3.39199,-10.73141,0.10594,-29.60966,-6.80541,-25.36772
4511,1.73879,-10.6524,1.34255,-24.84892,-6.07299,-35.56058
4539,-3.40755,-13.24652,1.86089,-27.90067,1.31225,-8.94927
4567,-4.80456,-14.81113,1.10433,-41.69461,-1.37329,30.47941
4596,0.06285,-12.94844,-5.00927,-93.75756,-2.34985,45.37197
4625,2.47022,-11.08336,-7.08145,-166.26727,7.17163,43.29678
4654,1.25875,-10.54227,1.76273,-147.46846,2.89917,75.27918
4683,3.53564,-13.53502,2.47141,-122.26096,-16.93724,98.89977
4712,6.81091,-15.17026,2.33973,-84.17505,-144.74477,77.78162
4739,5.89153,-10.22983,3.799,-56.22097,-43.91476,58.43349
4764,2.3948,-8.17081,3.04483,-32.72245,32.50119,47.44717
4789,-0.98102,-8.27017,-0.50458,-46.8826,11.81029,62.70594
4813,0.65781,-7.51121,0.76794,-43.52567,22.06419,53.42861
4837,0.89723,-7.28137,1.32699,-34.06522,50.01828,47.38614
4861,0.6183,-7.04554,1.28269,-22.8958,58.44112,51.41445
4885,0.95229,-6.63373,1.25755,-10.74981,60.94356,51.71963
4908,1.57,-6.12497,1.12108,7.07244,52.82589,45.49405
4933,3.48296,-5.41149,1.27671,44.73111,36.83469,33.53117
4956,3.57514,-5.287,0.81942,74.69935,32.19602,23.88762
4980,3.61105,-5.52402,0.21847,89.16467,36.59055,3.68499
5004,3.24474,-5.80893,0.25079,97.52647,24.13939,-19.26421
5028,3.02328,-6.94259,-1.76632,69.81654,-8.5144,-43.92239
5052,-4.48853,-17.73445,-17.10118,-54.69509,-31.34153,-31.10502
5076,-12.66952,-23.80615,-10.86429,-67.87867,-2.83813,72.22742
5099,-7.48966,-17.32504,-6.47691,-30.40311,-15.10619,37.74259
5125,-1.41677,-7.81886,-3.2603,6.95037,-19.86693,8.01849
5152,7.26341,-15.00267,2.39001,-30.64725,-27.92356,-18.10454
5181,6.00167,-11.79204,1.11151,-27.96171,-22.18626,4.9057
5211,3.83372,-4.03962,2.58514,38.8107,-23.10179,-26.58842
5240,3.68049,-5.95977,7.98885,90.93468,12.42064,-64.7964
5269,3.81576,-9.76774,4.9135,74.57728,-19.07347,-64.91847
5298,1.97222,-13.74811,1.34255,47.90493,9.61303,-44.83792
5326,0.78709,-9.74261,0.64464,36.18619,20.59935,-59.85256
5355,1.30065,-8.34798,1.22164,47.47769,27.55735,-57.28908
5383,0.41839,-8.75021,2.29065,61.69887,21.63695,-38.06302
5412,1.28748,-9.90182,1.18693,72.31898,-43.73166,-33.54642
5439,0.92835,-9.86471,1.26713,81.53528,-60.21114,-27.44291
5464,0.69611,-9.28052,1.10313,79.15491,-55.93868,-32.44779
5492,0.15263,-8.77894,-0.51535,67.31409,-46.72238,-35.68265
5521,-0.03531,-9.22067,-0.75836,53.7643,-41.47335,-36.96439
5549,-0.41001,-9.87788,0.75238,28.67887,-17.36449,-43.12894
5578,-0.68295,-9.52952,1.87286,28.86198,6.4392,-37.81888
5607,-0.56683,-9.1249,2.05123,51.56704,13.27514,-29.02982
5635,0.49261,-10.49199,0.40043,46.01284,9.06371,-12.73345
5662,1.43353,-10.99477,-0.60274,28.19059,-44.58615,-3.02887
5690,3.89836,-10.45009,-1.86808,-11.84844,-50.68966,-12.1231
5718,2.98018,-10.35313,0.47226,-37.11698,10.16235,-27.93119
5744,0.90561,-10.65001,1.19531,-23.87236,-15.71654,-31.41019
5771,-3.36445,-14.1228,1.49937,-31.0745,-5.58471,0.26703
5801,-3.65535,-15.16667,0.26635,-56.282,-6.37817,35.30119
5829,1.03489,-12.28525,-6.88632,-142.82979,-4.85229,40.12296
5857,1.48141,-10.73859,-4.50409,-178.47429,4.48608,59.65419
5886,0.52613,-10.92534,0.51775,-148.50606,-5.09643,98.9608
5914,6.86358,-14.99309,3.39438,-113.22776,-90.48455,91.39245
5942,8.95372,-14.59565,3.88519,-71.2356,-104.33952,63.86562
5971,2.73478,-8.66641,3.06518,-36.87284,9.61303,52.14687
5999,-0.88765,-8.53234,-1.54965,-53.04714,18.52416,56.48037
6026,-2.30262,-8.68078,-2.22601,-51.15505,12.29858,56.05312
6055,1.39163,-7.59979,1.45508,-36.99491,44.1589,47.87442
6084,1.16538,-7.23348,1.55444,-21.61406,56.91524,50.74306
6112,1.08996,-6.23749,1.22523,-5.56182,53.31417,52.2079
6140,1.88843,-5.41389,1.18693,24.28435,37.87228,39.93985
6167,3.32495,-4.68964,1.57,57.36537,29.93772,22.72795
6196,3.44466,-4.73394,1.20129,74.33313,62.53047,-6.08062
6224,3.6745,-5.32171,0.09158,77.69007,67.1081,-31.95951
6252,2.95026,-9.18236,-6.99286,27.88542,27.19114,-60.34084
6279,-2.07158,-16.26082,-16.3913,-73.61597,-8.14819,12.84026
6306,-7.73866,-19.27273,-6.3572,-39.68045,10.34545,73.02088
6333,-1.57359,-9.31404,-4.26587,-4.89044,-19.07347,34.01944
6360,0.92835,-5.62338,-1.91357,27.45817,-32.8674,7.65228
6390,5.52642,-14.77282,2.07996,-11.11602,11.44408,-6.93511
6419,0.2484,-12.73655,-3.04243,-33.94315,-28.41184,9.54437
6447,1.90758,-6.72711,4.64894,29.53337,12.66479,-28.05326
6475,2.64859,-6.75344,6.42544,79.82629,19.62279,-35.37748
6504,4.23594,-7.60698,3.386,61.02748,-27.19114,-56.12941
6533,4.61183,-11.0247,1.66337,34.96549,29.3884,-66.13918
6561,1.21805,-11.8112,2.1051,19.09636,64.6667,-70.10645
6588,0.02574,-9.77373,1.23122,31.36442,60.88252,-63.14845
6618,-1.38564,-9.32961,2.46184,49.55288,59.78389,-27.74809
6645,1.45747,-9.18595,0.87089,64.20131,-25.17698,-23.5977
6673,1.53887,-9.5798,1.35811,85.13634,-45.01339,-16.70073
6701,2.13982,-9.29369,0.89483,77.01868,-19.92796,-28.84672
6727,1.43353,-8.85915,-0.83737,60.11195,-14.61791,-39.10062
6754,0.96546,-8.83999,-1.19411,48.08804,-14.80101,-46.79104
6780,-0.1251,-9.85394,-0.75357,41.43521,-15.53344,-40.87064
6807,-0.30945,-10.00597,0.65422,30.69303,-0.76294,-35.25541
6835,0.19094,-9.11293,0.96187,34.47721,15.65551,-39.16166
6862,-0.05686,-9.46847,0.35733,40.94693,31.89085,-30.49467
6889,0.26635,-10.38545,-0.55964,23.18571,22.30833,-14.13726
6917,1.25277,-10.8176,-1.30903,9.45281,-31.82981,-2.11334
6943,3.42431,-10.04547,0.495,-21.18681,3.50952,-10.35308
6971,2.98856,-9.77852,1.35572,-27.53446,8.27026,-23.7808
6999,1.20129,-10.42136,1.36769,-19.05058,-5.95092,-23.23149
7027,-1.58317,-13.9145,1.74956,-43.22049,37.07883,0.5722
7055,-2.45226,-14.61121,0.51775,-58.47927,8.6975,21.87346
7082,0.30227,-11.7286,-7.65366,-138.37422,-24.44456,29.93009
7108,1.84653,-10.35791,-4.88477,-185.00505,28.22874,28.40421
7135,1.10672,-10.09695,-0.70449,-167.67108,-7.2937,54.95449
7162,3.24833,-12.47918,4.01807,-124.76339,-42.99923,87.73035
7190,5.08469,-13.5015,5.10623,-77.52222,-67.41328,76.98817
7219,4.29221,-12.92689,5.10504,-43.28152,4.66919,64.29285
7247,-3.38121,-10.99836,1.42635,-35.28592,56.61007,81.01648
7277,-2.93709,-10.60452,0.11193,-47.85916,91.40008,70.51844
7303,0.23882,-9.66838,3.80738,-22.77373,136.62711,68.13807
7330,0.76195,-9.64564,2.96462,-6.23321,133.39223,75.82849
7358,1.10313,-9.44453,1.74837,-6.59942,142.60854,79.36853
7383,4.07194,-7.01561,1.04926,-6.78253,166.22913,54.09999
7411,4.08032,-6.41826,1.25516,23.24675,153.839,42.19815
7436,4.24312,-6.11419,0.76195,43.51041,144.31752,24.25383
7461,4.7064,-4.89674,-0.85653,34.111,130.8898,-1.31988
7489,3.04123,-5.9861,-1.734,25.26091,89.75213,-25.42875
7517,0.84695,-8.26778,-2.68929,26.72575,79.13203,-35.31644
7544,-4.8716,-17.49623,-6.93421,-28.44999,138.82436,9.84954
7572,-5.4091,-17.35617,-5.36481,-51.70437,174.04163,41.70987
7600,-0.53091,-7.58663,2.34931,20.19499,83.28241,45.79922
7626,0.75836,-6.10701,1.52211,32.34098,10.04028,44.76162
7654,8.25341,-8.35876,1.74956,3.65448,39.52023,-33.36332
7683,7.73626,-13.22497,-5.58986,-29.67069,128.81459,-19.32524
7711,0.86491,-9.59895,-2.17334,1.091,29.3884,-13.95415
7736,3.56197,-9.34756,2.67851,-4.89044,74.79853,-53.99318
7761,2.70006,-9.9102,2.49895,-0.55695,132.35464,-62.47707
7785,0.41719,-9.14525,2.3936,5.97381,169.40295,-43.251
7809,-1.4455,-9.06385,1.80942,16.8991,139.19057,-22.62114
7833,-1.23002,-10.82119,0.64943,15.8615,113.06754,-25.06254
7856,1.38924,-10.64881,0.7847,3.71551,146.27065,-29.45707
7879,1.09954,-9.50797,1.62985,6.6452,171.96642,-20.36284
7902,1.18214,-8.8376,1.69569,31.36442,137.17641,-5.89752
7925,1.57359,-8.37791,1.00736,65.17786,45.50167,-0.22125
7948,2.05482,-8.17081,-0.06524,68.96204,29.99876,-1.68609
7973,3.0161,-8.60895,-1.56042,43.20523,66.68085,-27.80912
7999,2.05243,-10.69669,-1.67415,12.07732,100.73846,-44.95999
8027,0.10953,-10.59255,-1.38804,-16.24297,116.54655,-38.97855
8053,-0.85293,-10.49079,-1.27192,-27.16825,94.08562,-22.49907
8080,-0.08559,-11.02111,0.7428,-23.0789,82.48895,-4.55474
8107,1.08637,-9.99759,1.14503,-30.8914,86.94452,-7.78961
8134,1.37008,-9.19433,1.64182,-36.99491,85.60175,-10.9024
8159,1.52331,-8.99561,3.04243,-23.68925,77.48407,-12.61138
8183,1.97222,-9.63247,3.11186,-9.77325,78.09442,-13.83208
8207,2.30981,-10.09336,1.68971,-5.19561,76.1413,-11.57378
8230,2.57437,-10.17955,-0.27593,-17.09746,88.8366,-8.6441
8255,3.3034,-10.82957,-1.4048,-42.79324,143.70717,-28.60258
8279,1.25277,-12.40256,-3.69126,-108.83323,174.59093,-48.56106
8304,-2.48339,-13.34348,-3.3429,-152.16815,157.6842,-37.57474
8328,-5.30376,-13.85345,-1.92195,-140.02217,46.2341,-5.10406
8354,-5.60542,-14.61241,-4.14855,-149.66571,5.09643,24.19279
8379,4.39755,-12.06738,0.67935,-192.08513,67.35224,45.37197
8403,4.59747,-10.29926,5.6964,-161.4455,86.5783,37.31534
8426,2.42712,-9.00998,5.16609,-130.98897,108.79508,29.50285
8450,-1.30783,-11.83035,4.13299,-77.52222,123.68765,45.12783
8474,-8.95491,-13.83789,4.80456,-70.32008,185.02794,93.10143
8498,-5.00687,-11.78127,3.20524,-73.61597,118.62174,109.09263
8521,0.71407,-10.30405,4.68007,-46.39431,61.18769,84.80066
8546,2.43071,-10.59853,5.82569,-21.12578,94.81805,95.90904
8574,4.65014,-10.20109,0.77632,-33.88212,185.76036,121.84896
8602,5.45579,-9.22306,0.49021,-57.50271,225.25008,114.52475
8629,4.2539,-9.01118,0.10475,-45.41775,182.5255,111.59507
8657,3.96659,-8.76936,1.56521,-17.89092,142.66957,105.79674
8685,4.64056,-8.14448,1.18693,19.88982,49.46896,96.27526
8713,4.87519,-7.72549,0.97624,55.16811,3.87573,89.7445
8742,3.50332,-7.12335,0.0006,65.23891,35.55295,70.82362
8770,3.06877,-6.91745,-0.92237,49.91909,98.60223,33.22599
8802,0.5788,-9.83119,-6.50205,8.9035,130.76773,11.43645
8826,-2.63901,-10.92414,-10.4046,-12.70293,60.94356,10.45989
8849,-4.93146,-10.8607,-6.854,46.13491,-56.06075,27.73283
8874,-8.3396,-9.44812,7.08025,81.29114,-57.34248,58.9828
8903,-4.8297,-9.69592,8.23306,87.15051,48.98067,28.16007
8931,-0.80505,-16.6415,-7.35439,-101.32591,14.55687,10.58196
8956,6.67324,-12.99273,5.63775,-23.38408,185.76036,-41.35892
8980,7.00005,-7.25862,1.93272,36.67447,144.74477,-30.12846
9002,7.41544,-3.3441,0.65781,64.8727,-21.33177,-17.79936
9024,6.53078,-2.6438,2.59352,72.62415,-80.04755,-38.36819
9044,8.35995,-3.05321,2.58993,60.23402,-32.07395,-78.28516
9065,9.03751,-7.12215,2.87005,47.78286,61.12666,-110.02342
9086,5.50966,-11.30363,2.64021,24.77262,126.19009,-107.76512
9107,-0.1251,-14.28081,0.93075,24.58952,90.66766,-62.84327
9130,-2.62943,-10.82239,-0.26995,36.24723,66.98604,-52.22316
9153,-1.84174,-9.13208,1.11031,46.6232,47.57687,-21.27836
9174,0.35494,-8.73824,1.76752,61.45473,-13.09203,-8.52203
9196,2.22601,-7.97928,3.03405,74.2721,-28.53391,-23.29252
9218,2.34931,-8.28932,3.85047,86.29602,17.36449,-39.95511
9241,1.1151,-8.89985,2.91793,99.54063,46.17306,-32.32572
9264,0.76435,-8.99681,0.45191,91.36193,16.26586,-23.96391
9286,1.73161,-8.90703,-3.37523,59.5016,-13.33617,-31.04398
9308,1.31262,-10.08857,0.25199,44.36489,-6.74438,-33.36332
9330,1.21087,-9.66001,-0.09278,41.67935,-11.56615,-28.17533
9352,1.53289,-9.27214,-0.11911,33.19547,-15.22826,-24.87944
9375,1.61668,-9.91379,0.37409,29.71647,-17.66966,-16.88384
9396,2.2308,-10.35073,-0.4531,18.97429,-41.35129,-14.3814
9419,2.6007,-10.4465,-1.20368,-8.55255,-42.20578,-23.47563
9441,1.90638,-11.71064,0.41001,-26.74101,-23.34593,-32.99711
9463,-0.06404,-12.94844,2.03567,-18.13506,-32.19602,-28.23637
9484,-2.24636,-12.73895,1.20368,-19.66093,-47.88205,-11.32964
9505,-3.81456,-14.12399,0.65781,-41.75565,-14.37377,24.31486
9526,-2.41276,-14.97992,-1.48979,-69.40455,4.48608,43.90714
9547,0.02095,-13.13878,-3.39558,-103.76731,15.53344,51.04824
9568,1.92913,-11.39101,-5.8209,-143.62325,15.41137,53.0624
9589,2.48339,-10.40221,-4.30657,-169.56316,0.82397,64.47597
9610,3.8421,-10.56621,0.52972,-154.73164,6.98852,91.51452
9633,6.41826,-13.69902,2.88801,-139.10666,-6.92748,101.34117
9655,8.06547,-15.13554,3.01969,-120.61301,-92.62078,93.0404
9677,9.86232,-13.58051,2.58275,-75.5691,-144.98891,72.77674
9699,6.50684,-10.03111,2.63781,-45.66189,-77.48407,59.65419
9720,3.26509,-7.83323,2.61267,-29.30448,-25.97044,46.71475
9742,0.19333,-7.66444,-1.20249,-44.31912,-36.46848,58.7997
9764,-1.23242,-8.02596,-1.80104,-37.05594,-9.24682,60.69179
9787,1.16897,-6.59184,0.96187,-26.06962,23.40697,48.7289
9809,0.93673,-5.93343,0.34417,-21.36992,40.6799,44.21231
9831,1.00616,-5.4498,0.53929,-10.74981,47.02755,46.89785
9852,1.54366,-5.08229,0.80385,0.78583,43.54855,45.55508
9875,2.17693,-4.77105,1.14742,27.45817,19.86693,35.36222
9898,2.76111,-4.60824,1.78907,57.73159,7.90405,22.72795
9921,3.08074,-4.65014,1.96265,81.47424,22.30833,2.46429
9944,3.04961,-5.33608,0.21967,88.06603,25.97044,-14.68657
9967,3.34889,-8.57304,-4.82132,70.61,29.87669,-38.85648
9988,0.50937,-14.14674,-14.78839,-31.19657,1.12915,-40.01614
10011,-8.94055,-21.85487,-14.22814,-51.09402,-39.09299,30.84562
10034,-11.03428,-20.95465,-9.86471,-36.75077,-24.38353,66.7953
10057,-3.53205,-10.14962,-5.02842,-21.30888,-1.06811,11.13128
10079,-0.78829,-5.41509,-2.69408,6.21795,-7.2937,-10.41412
10102,5.2427,-11.06061,-0.7021,-34.24833,-8.6975,-26.46635
10125,6.43621,-13.38179,-1.1558,-24.17753,11.19994,2.03705
10148,1.89561,-6.59423,-0.16221,3.53241,-92.74285,-5.47027
10170,1.4862,-2.99335,5.37798,65.60512,-26.45872,-26.71049
10193,3.07236,-4.54958,7.60698,99.41856,12.78686,-49.47659
10214,5.10623,-8.10976,3.62542,76.83558,-17.66966,-77.55274
10237,5.36122,-13.213,1.25516,52.05532,-17.24242,-61.25636
10263,0.69731,-15.78198,1.09834,40.15347,-1.00708,-43.12894
10292,0.35135,-8.20313,0.57042,44.73111,16.20482,-59.66945
10321,-0.46268,-8.22708,1.66816,53.39809,41.77853,-42.88479
10349,0.70569,-9.47805,0.88286,66.94789,-10.22338,-26.46635
10376,0.98222,-9.80366,1.35691,86.78429,-60.51631,-10.47515
10405,2.05363,-8.83161,0.23762,84.526,-56.488,-33.24125
10431,1.2372,-8.96688,-0.90441,68.5348,-35.79709,-45.93655
10459,0.20171,-8.91182,-1.50057,53.5812,-29.02219,-49.04934
10486,-0.87329,-9.68874,0.70449,37.89517,-14.4348,-52.71145
10514,-0.91159,-9.52713,1.84054,32.89029,22.30833,-46.3638
10542,-0.65302,-9.14645,1.60711,41.86246,19.01244,-39.46683
10569,-0.36691,-10.36151,-0.15502,53.09292,-9.30785,-10.47515
10597,1.13066,-10.21785,-2.09193,29.89957,-45.25753,5.51605
10625,4.05278,-9.37031,-1.58676,-22.77373,-73.76093,-8.76617
10652,3.61704,-9.85513,2.28108,-31.74589,-25.17698,-29.45707
10680,1.81181,-10.64163,3.51888,-8.85772,-13.27514,-35.68265
10710,-2.6845,-14.30835,1.91955,-21.18681,5.34057,-10.29205
10738,-3.69246,-16.02499,2.38522,-31.0745,2.41089,22.54484
10765,0.38966,-14.43644,-9.02075,-105.17112,-34.51535,35.72843
10793,2.98856,-12.70782,-5.14334,-155.21991,-8.6975,33.95841
10821,3.21481,-11.62205,-2.19129,-152.90059,-37.62815,54.2831
10848,3.20643,-12.28644,3.6326,-109.74876,-37.13986,97.43492
10875,5.6174,-13.6248,2.69527,-95.10033,-63.20186,89.92761
10901,5.05356,-10.24778,2.49177,-68.24488,-75.46992,63.19423
10927,1.47782,-8.65803,2.63183,-38.09354,6.50024,56.11415
10951,-0.84216,-8.51917,0.12749,-37.97147,8.14819,59.28798
10975,-0.96426,-7.85837,-1.11271,-45.11258,20.35521,63.37733
10999,0.50218,-7.20834,1.1989,-42.5491,57.34248,59.16591
11022,0.58,-6.60261,1.57119,-31.86796,69.61054,61.97352
11047,0.70809,-6.58106,1.1977,-17.64678,64.23945,65.14735
11074,1.78428,-6.46255,0.993,1.45721,59.90596,53.0624
11101,3.10947,-6.12377,1.46585,37.59,75.04266,34.26358
11129,3.84449,-6.12257,0.8266,69.51136,50.9338,30.41837
11157,3.73914,-5.60662,0.27473,101.49376,-5.88989,10.27679
11184,4.33171,-5.33608,-0.04729,124.01572,-37.0178,-21.94975
11212,3.53324,-7.79373,-3.29741,91.60607,-35.55295,-73.76856
11240,-0.40761,-13.92767,-12.89816,-51.09402,-4.36401,-18.53179
11267,-16.11358,-25.38632,-10.28489,-62.56862,5.34057,117.82066
11294,-4.05638,-12.52108,-3.86005,-13.13018,5.0354,27.06144
11322,0.77752,-3.37283,5.1218,11.22283,70.03779,-6.44683
11347,4.28861,-6.03997,9.23743,59.92885,-12.66479,-27.93119
11372,7.58184,-12.80599,8.27496,56.93813,-63.69014,-47.40139
11400,3.2615,-22.80178,-21.06718,-45.35672,89.20282,44.0292
11428,5.34565,-5.17567,5.97174,47.35562,-13.031,-3.57818
11455,5.36002,-2.45226,6.91505,48.51529,-25.54319,-42.09134
11482,7.29573,-7.00005,2.3122,31.36442,-62.34737,-69.43507
11506,7.21433,-10.18912,3.98455,61.27162,20.35521,-88.23388
11529,2.81738,-12.08773,4.89554,83.24426,64.60567,-77.00343
11552,-2.95863,-14.09766,1.19411,67.92445,1.06811,-28.60258
11574,-4.49092,-12.63241,-1.64063,56.38881,-24.32249,-32.50882
11598,-1.07919,-7.74105,1.01694,53.7643,-24.20042,-36.90335
11621,-0.12629,-8.71908,0.73203,55.77846,-52.58175,-10.53619
11646,2.0225,-9.18835,1.55204,68.04652,-64.4836,-20.24077
11675,2.42473,-9.1237,1.53408,71.89173,-40.80197,-38.12406
11702,0.69611,-8.78133,-0.2065,59.80678,-22.36937,-43.251
11730,-0.09397,-9.10216,-0.16819,39.23795,-14.37377,-53.13869
11757,-1.31262,-9.90182,0.53091,39.23795,-17.48656,-41.35892
11785,-0.74998,-10.0323,0.246,46.74527,-18.64623,-24.45219
11812,0.06045,-9.71627,-0.92835,18.91326,-10.83373,-9.13238
11839,2.31699,-10.20828,-0.52134,-10.01739,-35.36985,-14.32036
11867,2.09553,-10.79127,1.66577,-16.1209,-37.07883,-17.12798
11894,1.76632,-11.17673,2.83533,-1.96075,-15.65551,-20.17973
11922,-0.95948,-12.20863,-0.12989,-21.43095,-18.7683,-15.90728
11949,-2.68091,-14.64832,1.36529,-34.30936,4.42505,7.3471
11976,-3.32974,-15.3606,0.72245,-56.64821,-2.41089,34.38565
12004,0.98701,-12.0985,-5.93104,-128.12033,-14.73998,40.18399
12032,1.84533,-10.84873,-6.29256,-168.52557,-19.74486,53.79482
12060,2.02011,-11.28208,2.1889,-138.98459,-10.9558,89.86657
12087,5.11701,-14.63755,1.90519,-115.24191,-67.53535,99.20495
12115,8.35397,-14.96316,1.24798,-90.58373,-154.51038,69.66395
12144,5.25348,-8.94055,2.92751,-61.28688,-26.33665,43.41885
12172,1.55563,-8.02237,1.55204,-51.88747,19.56175,28.83146
12200,-2.1039,-8.18278,-0.53091,-55.73269,-0.57983,53.55068
12228,-0.02454,-7.75183,1.61668,-35.16385,27.06907,51.23135
12256,0.72724,-6.7726,0.94391,-16.85332,30.67014,54.03896
12282,0.77991,-6.48888,1.12707,0.29755,32.92844,59.41005
12308,1.51493,-6.10581,1.27072,21.17155,37.13986,52.51308
12337,3.16094,-5.38037,1.50176,60.41713,29.81565,34.8129
12364,3.50212,-4.79379,1.48141,84.83118,50.99483,9.72747
12391,3.37762,-5.15292,0.46507,100.21202,44.52511,-15.23589
12418,3.65654,-7.66923,-5.11342,77.9342,39.09299,-50.75832
12445,0.59077,-13.18786,-16.94796,-75.20288,8.81957,-40.56546
12473,-10.46326,-22.61144,-14.61361,-53.71852,-28.83909,62.58388
12500,-3.32854,-10.40101,-4.16531,-7.69805,-36.34641,26.51213
12527,0.06644,-5.58268,-2.44268,6.09588,-17.7307,10.21575
12556,9.00639,-14.3682,5.3253,-9.22393,24.44456,-32.87503
12583,3.14299,-13.15075,-5.0787,-32.60038,-29.14427,14.3051
12611,-0.32142,-10.21067,-3.12024,20.31706,-23.40697,-24.39116
12639,0.52493,-6.3189,8.21271,90.08019,35.06467,-27.0767
12666,3.55958,-7.30531,4.79858,81.71838,18.15795,-43.73928
12692,6.52001,-9.36672,1.27312,49.61392,-20.23314,-67.29884
12721,2.05363,-11.36468,1.44789,46.86733,21.27073,-55.70217
12750,1.03729,-9.96886,0.42557,49.73598,32.80637,-57.47218
12776,-1.08038,-9.09497,1.20488,48.75942,29.93772,-29.09086
12805,0.66738,-9.25419,1.22643,63.40785,-47.6379,-17.8604
12834,1.88843,-9.27933,1.59035,77.99524,-90.11834,-7.72857
12860,2.28946,-8.94294,1.49458,74.39417,-71.74677,-23.71977
12887,1.95786,-8.72028,1.11151,73.0514,-44.76925,-35.31644
12914,0.67696,-8.88189,-0.71527,69.63343,-41.04611,-44.95999
12940,-0.18256,-9.47086,-0.66858,39.60416,-38.36057,-52.89455
12966,-0.88047,-9.84795,1.04926,28.43473,2.04468,-47.5845
12995,-1.13665,-9.34756,1.76034,55.41225,0.57983,-40.50443
13022,-0.98102,-9.6229,0.4938,61.51576,-12.90893,-25.12358
13051,-0.31304,-10.56382,-0.56683,39.36002,-29.02219,-8.88824
13078,2.15777,-10.33517,-1.66217,-2.81524,-47.02755,-11.0855
13106,2.0632,-10.43453,0.71407,-23.0789,0.27466,-12.91656
13132,1.31023,-10.40101,2.48219,-2.32696,-16.20482,-17.00591
13159,0.34058,-10.46685,1.12827,4.69207,-33.41673,-12.97759
13187,-0.4962,-13.01189,0.85293,-25.58134,-6.4392,-0.34332
13215,-2.08715,-15.40729,-0.92835,-45.29568,-13.09203,21.44621
13242,-0.76674,-13.49791,-4.39755,-103.218,-19.74486,39.02432
13269,1.34734,-11.50953,-7.11736,-168.15935,-21.08763,39.57364
13297,0.25917,-10.25137,0.4124,-162.78827,-16.14379,67.46668
13324,0.79069,-12.37503,3.38361,-133.18625,-8.08715,100.73083
13350,7.59022,-15.02302,2.48817,-104.07249,-101.95915,88.5238
13379,7.03117,-11.94288,3.46501,-71.17457,-82.67206,59.71523
13406,3.60866,-9.11413,3.70323,-39.74149,28.41184,40.48917
13433,-2.17932,-8.64247,-2.02849,-52.49783,16.57103,48.85098
13460,-0.74639,-8.28693,-0.55366,-52.61989,14.98412,52.32998
13487,1.04926,-7.57944,1.49937,-34.06522,45.92892,47.3251
13514,0.68893,-7.13173,1.38205,-15.38848,54.4128,57.21279
13540,1.1546,-6.50924,1.20368,-0.86212,50.50655,55.01553
13567,1.91596,-5.68324,1.18693,26.1154,35.91916,46.04336
13595,3.58711,-5.17447,1.29945,63.22475,32.62327,26.39006
13623,3.83372,-5.04877,1.16179,79.82629,52.52071,2.34222
13651,3.74274,-5.51804,0.00419,100.21202,37.87228,-31.22709
13679,3.8421,-7.68359,-4.01089,54.67983,11.50512,-66.81056
13707,0.66978,-13.05857,-16.25483,-87.77612,10.89477,-11.87896
13735,-12.57614,-23.45779,-8.42101,-51.33816,-20.35521,92.55212
13762,-2.67372,-11.22462,-3.85526,-9.59014,-30.2429,24.43693
13789,5.43903,-6.18841,2.45825,15.67839,5.40161,-2.05231
13814,9.34277,-12.62163,4.33051,6.09588,11.81029,-44.59378
13840,2.84611,-15.57967,-3.49733,-26.92411,-39.4592,25.04728
13866,0.66619,-12.34031,-6.45178,-21.49199,-21.75902,-20.72905
13895,0.23284,-5.52043,8.22827,75.37074,11.38305,-29.02982
13924,2.04884,-6.51043,6.78218,92.27746,7.96508,-29.335
13952,6.99526,-10.68113,-0.22206,58.83022,-36.22434,-59.97463
13979,2.92033,-12.68029,0.908,39.90933,26.88597,-58.38771
14004,0.56922,-10.96963,-0.26157,22.88054,42.87716,-71.63233
14030,-1.14263,-8.73106,1.57838,31.30338,51.84933,-50.02591
14054,-0.68534,-8.62691,1.8178,44.05972,22.2473,-24.8184
14080,0.97145,-9.32123,1.51014,73.78382,-57.8918,-16.15142
14106,1.23002,-9.79049,1.66337,87.8219,-55.51143,-15.05278
14134,1.14263,-9.19792,0.6602,74.51624,-35.00364,-23.41459
14160,1.0744,-8.64965,-0.17059,61.5768,-36.46848,-31.71537
14186,0.95469,-8.6293,0.01018,56.63295,-27.86253,-39.89407
14214,0.26276,-9.52952,0.44233,39.66519,-16.63207,-51.2466
14240,-0.55007,-9.68874,1.47662,32.82926,16.02172,-43.98343
14267,-0.42796,-9.55825,1.59394,55.16811,12.48168,-35.98783
14293,-0.15622,-10.07061,0.3729,64.62856,-0.82397,-19.87456
14318,0.94272,-10.44291,-1.072,42.83902,-26.64182,-8.15582
14344,2.52409,-10.11251,-2.89878,-3.85284,-53.00899,-15.78521
14372,2.00694,-10.24419,1.13425,-29.73173,-12.23754,-14.99175
14401,1.61549,-10.158,2.69647,-6.78253,-16.38793,-20.60698
14427,-0.40761,-11.75613,2.01771,-6.47735,-18.89037,-15.72417
14455,-0.75238,-14.19462,2.74795,-15.02227,4.11987,0.99945
14482,-1.00018,-14.91408,2.00694,-26.31376,-5.95092,15.58684
14509,0.57042,-12.31039,-4.69204,-91.01098,-13.15307,23.70451
14536,1.37008,-11.54783,-5.30016,-143.98946,-25.05491,30.60148
14563,1.47782,-10.29447,-4.08152,-158.51581,-28.35081,51.10928
14591,1.157,-10.87506,1.94349,-127.93722,-23.10179,91.39245
14619,4.15214,-13.93605,1.71006,-106.26976,-85.60175,86.14343
14645,6.02082,-11.41496,3.41593,-90.76684,-80.35272,58.92177
14672,3.14179,-9.57381,3.72837,-62.87379,0.27466,50.55996
14701,0.90321,-8.89865,2.30861,-45.29568,24.44456,45.73819
14729,-1.36888,-8.62092,-0.04729,-48.1033,26.45872,59.89833
14756,-0.05686,-8.39347,0.9894,-29.91483,37.44504,56.78554
14780,0.01377,-8.4653,1.05884,-15.02227,53.98556,63.74355
14805,1.22643,-7.84879,1.04567,-1.53351,69.1833,66.42908
14826,2.44987,-6.85161,1.04208,16.34978,71.56367,56.72451
14848,3.35966,-6.04237,1.0744,33.13444,74.24921,42.8085
14869,3.40635,-5.42227,1.17017,54.86293,73.21162,23.64348
14890,3.18968,-5.13975,0.72006,70.06068,65.76533,6.98089
14911,3.62662,-5.2032,0.75597,85.62463,55.81661,-13.46587
14932,4.48135,-5.62578,0.19932,88.98156,44.09787,-38.67337
14953,4.16172,-7.37953,-2.31699,67.92445,25.60423,-63.69777
14974,2.6007,-10.59374,-7.20116,-38.27664,-1.43433,-52.04006
14995,-5.5336,-17.60157,-17.45193,-94.42894,66.98604,30.23527
15017,-11.98956,-21.7998,-8.96329,-44.25809,77.48407,78.45301
