timestamp,ax,ay,az,wx,wy,wz
24,-1.95068,0.86131,7.53874,-25.76445,-25.04728,24.74211
49,-1.9818,0.88166,7.65486,-24.66581,-59.65419,38.65811
73,-1.26474,0.83019,7.62254,-27.29032,-77.0492,45.79922
98,0.63746,0.77393,9.03632,-25.27617,-80.34509,43.17471
123,1.09116,0.96426,8.57423,-27.90067,-89.92761,31.39493
149,2.23559,0.89483,7.05033,-50.42263,-129.66147,17.96721
173,2.81139,0.77752,6.83724,-69.34351,-158.95833,6.85882
196,3.5512,0.42916,10.17117,-71.47974,-169.51738,2.58636
220,3.99892,-0.50697,11.1061,-57.44167,-111.28989,0.99945
243,3.93667,-1.00137,9.91858,-32.84452,-120.20102,-1.62506
268,3.25911,-0.01137,9.26137,-8.06426,-125.87729,-3.02887
294,3.1789,-0.60394,7.78894,1.33514,-140.70882,14.18303
320,2.71562,-2.89758,7.30531,6.76727,-128.0135,64.96424
345,4.65014,-1.93392,6.71993,16.77703,-141.44124,70.70155
372,5.04398,-1.43712,6.41826,39.60416,-178.85576,78.88025
397,3.01849,-3.9247,6.04715,58.76918,-191.429,118.67514
420,4.94343,-4.37959,4.15574,33.01237,-193.6873,135.94809
443,6.48051,-3.26988,4.90871,17.02117,-180.25957,148.09406
467,7.35678,-2.15538,6.39192,36.00309,-190.75761,163.9632
491,7.09941,-2.81857,5.95857,60.90541,-244.65161,170.92119
517,9.22905,-5.55754,7.33524,108.39072,-290.42795,158.65314
543,9.49959,-5.0392,7.48607,128.71542,-264.54904,117.57652
568,8.76817,-4.52444,5.62578,122.2457,-240.74538,127.52523
595,9.29848,-3.4291,4.80097,129.63095,-247.33716,124.1683
618,13.61642,-2.38522,6.80731,142.38728,-181.41924,106.46812
643,15.04217,-1.24199,5.05835,151.84773,-162.55939,62.64491
668,15.25525,-0.49021,1.88124,89.34777,-61.85146,38.53605
694,16.67262,0.96426,-0.38128,60.60024,39.83304,11.8637
720,16.61277,2.06919,-3.63739,5.05828,90.06493,-31.28812
746,14.68903,1.82259,-5.22116,-47.67605,91.59081,-58.99806
771,12.20385,0.93314,-3.5081,-47.61501,60.70705,-72.97511
796,10.08258,0.5764,-1.30185,-20.6375,5.71441,-80.84863
821,9.73662,0.24002,-1.06961,14.03045,-61.36318,-86.15869
847,9.06026,-0.88885,-1.23002,-10.68877,-55.68691,-69.55714
873,7.69556,-2.45106,-2.79463,-71.0525,16.8228,-45.63137
899,10.14363,-2.45585,2.31819,-31.37967,9.43755,-51.97903
926,9.94013,-4.15693,4.6657,37.04068,-12.59612,-47.34036
953,8.36953,-2.58753,1.82737,74.4552,-58.55556,-35.62162
980,9.01357,-1.96863,2.79463,94.71886,-65.08631,-22.377
1006,9.47326,-2.4355,3.14538,68.77894,9.8648,-11.87896
1031,8.67958,-1.35931,0.67098,50.71255,11.87896,-12.48931
1056,8.78732,-2.56,1.35452,36.49137,27.44291,-14.80864
1081,8.36115,-3.1801,0.22446,18.79118,28.23637,-4.43267
1108,9.30686,-2.81738,-0.31184,21.35466,-0.87738,1.4267
1133,10.14962,-3.1813,0.1251,24.77262,-0.51117,-7.36236
1161,8.27496,-4.25988,-0.908,23.00261,-10.39886,21.20207
1187,5.92026,-4.44543,-1.17136,27.153,-16.01409,64.10976
1214,7.78175,-2.69288,-2.23319,19.52361,-39.14639,99.69322
1240,9.61571,-1.9387,-1.6945,-0.55695,-39.02432,105.61363
1263,8.41382,-2.56,-0.17657,-35.28592,9.55962,145.95784
1285,7.14729,-3.39318,2.01412,-47.18777,1.19781,177.14677
1332,16.97788,-0.46029,-0.63267,-85.57886,53.44387,123.86313
1357,12.77486,-2.50613,-1.6909,-99.43382,94.94775,98.71666
1380,11.23419,-3.13221,-2.79343,-116.27952,135.29195,99.69322
1400,10.94569,-3.33333,-3.28185,-132.88107,131.20261,88.21862
1424,12.74015,-4.9123,-2.13144,-121.8337,60.82912,53.79482
1445,12.19427,-5.58148,0.46029,-94.06274,0.03815,43.72403
1469,8.4641,-3.72119,-1.05764,-58.11305,-71.00672,63.4994
1492,7.71591,-2.81379,-1.072,-5.31768,-139.18294,94.68835
1513,7.3101,-6.46734,-1.39522,-10.13946,-49.88857,119.4686
1535,7.03835,-7.72549,-2.69048,-11.4212,-56.90761,149.49786
1558,6.00167,-7.45734,0.29389,37.83414,-61.2411,194.84697
1580,4.5436,-7.33524,1.55084,102.65343,-61.11903,210.77713
1602,5.4905,-3.99054,2.57437,112.29697,-49.70547,142.35677
1624,7.50882,-5.47135,-9.30806,-33.21073,-213.40164,8.44573
1646,5.44382,-13.04541,3.13461,-93.8186,-149.86409,-18.95903
1668,3.35128,-20.64221,4.13778,-60.9817,-67.40565,30.23527
1690,4.23115,-20.57637,3.40874,11.1618,-113.7313,121.29965
1712,8.60416,-12.99992,0.43993,17.14324,-86.14343,99.08287
1734,8.68556,-7.68,-2.61626,14.8239,-126.67075,63.3163
1756,6.62296,-6.84802,-3.02567,4.14276,-152.85481,59.47108
1778,4.12222,-7.95533,-0.36811,16.53289,-121.72689,69.66395
1800,4.75309,-5.77182,2.21763,50.34634,-121.66586,26.02385
1822,5.14933,-4.15334,0.90321,45.21939,-133.50667,-65.22365
1844,3.22559,-4.26228,0.04369,17.26531,-146.14095,-80.7876
1866,-0.60154,-6.2782,-0.54049,4.63104,-200.46219,-39.772
1889,0.53091,-5.45459,-0.89004,-3.48663,-236.16772,-28.72465
1911,0.02933,-5.89512,-1.34494,-9.59014,-277.91574,-23.41459
1933,-0.38726,-6.99286,0.03172,13.66424,-246.11644,-23.84184
1954,-0.06045,-7.99843,3.0161,92.88781,32.56986,-36.04886
1976,-0.2484,-8.77774,-7.70155,36.00309,114.05173,-26.95463
2001,-0.32501,-8.90583,-12.04702,6.34002,51.85695,-8.15582
2028,1.22164,-8.093,-8.3803,-27.35136,15.84624,13.75579
2054,2.79224,-7.9278,-7.95892,-52.86404,66.20021,9.4223
2079,3.48057,-8.04272,-5.88794,-59.39479,122.10838,-4.18853
2104,1.67774,-9.89943,-8.00082,-82.5271,92.20116,9.48333
2130,1.88723,-12.80958,2.03806,-54.08474,139.07614,22.54484
2156,4.46219,-13.15434,10.17476,-15.44951,106.66648,5.45501
2184,5.69281,-11.26053,6.92702,64.93373,-95.84801,-21.3394
2211,2.87963,-5.25108,-9.84556,17.32634,85.91454,16.13616
2236,0.15263,-7.516,-10.31961,-79.59741,115.33347,32.79874
2261,0.38128,-11.46164,0.41958,-38.64285,191.38322,44.51748
2289,2.53007,-11.3156,2.90357,19.64568,119.05662,63.25526
2315,4.73513,-10.12209,0.99419,83.97668,15.72417,67.22254
2341,5.62578,-10.29327,-1.51733,87.27258,-74.7909,65.87977
2368,4.0875,-10.62726,-1.14144,82.45081,-108.36021,75.82849
2394,3.32854,-10.08138,0.03771,90.01916,-82.48132,90.41589
2423,3.34171,-9.01237,0.17538,94.35265,-46.71475,97.37389
2449,3.61465,-6.69598,0.9487,112.48008,-19.67619,109.70298
2478,4.18925,-6.16806,0.14904,150.56599,-105.5526,48.48477
2503,0.42437,-8.50121,-3.37642,104.11827,-185.08134,-67.72609
2529,-3.94385,-10.74458,0.65302,59.19643,-17.05168,-11.39068
2556,-1.19531,-9.55945,2.65457,61.69887,127.17429,-4.85992
2581,1.01454,-9.4984,0.47585,63.8351,124.4277,5.88226
2608,1.53648,-10.1999,-5.11701,37.10172,52.52834,3.31878
2632,0.09397,-11.59931,-3.81576,-4.40216,-45.00577,41.95401
2656,0.70689,-11.79683,-0.26755,12.5656,-76.49988,44.15127
2683,2.27868,-11.56818,1.39522,-0.74005,-4.78363,27.24455
2708,4.09947,-13.39496,-5.27502,-87.83716,48.13382,1.85394
2736,2.25713,-13.78282,-5.55634,-131.23312,4.49371,1.18256
2764,-0.12869,-11.95724,-0.92835,-196.84586,-53.85586,17.84514
2791,0.70809,-13.36862,1.60232,-192.87857,-122.7645,-11.87896
2816,0.01616,-14.69142,4.36523,-120.42991,-50.07168,-10.78033
2844,0.18615,-15.39053,-2.09672,-107.55149,12.42827,-7.11822
2870,-0.96426,-14.29877,-4.01687,-155.83026,48.9883,-6.75201
2895,-0.39444,-12.06977,1.25516,-133.55244,91.46874,-12.36724
2924,0.86371,-6.61817,-0.46388,-112.2512,98.79295,-15.17486
2948,2.36727,-4.90632,-1.64781,-71.35767,-0.08392,-38.42923
2974,3.6745,-5.10623,-1.08397,-4.40216,-175.43779,-104.7744
3001,2.1877,-6.58824,0.99778,-7.33184,-91.45348,-107.58201
3027,2.50015,-5.88674,1.74477,-30.15897,25.856,-52.77248
3054,1.14144,-5.12539,-1.41797,-25.64238,-56.5414,-24.94047
3081,-0.21727,-5.75147,-1.20967,-9.346,-52.2079,-27.38188
3109,-0.7847,-5.65091,0.64464,34.47721,-10.88714,-30.86088
3137,-0.67696,-6.03399,0.11791,80.61975,13.46587,-36.1099
3163,0.22087,-6.76661,-2.25833,126.39608,13.46587,-19.75249
3192,2.72161,-9.40023,-5.09905,93.37609,112.46482,-11.39068
3218,6.38354,-11.83514,-10.58536,0.29755,142.92134,-40.93167
3242,9.72824,-14.43045,-20.34413,-114.02122,29.88431,-56.55666
3268,4.63218,-12.53185,-9.12849,-105.65941,29.335,-82.31348
3294,-1.72442,-9.80964,-5.71436,-44.92947,-96.21423,-24.33012
3322,-3.15975,-10.54347,3.97856,-20.6375,-82.9696,58.00624
3351,1.04327,-11.33595,7.26341,53.52016,107.09373,65.7577
3376,3.15376,-8.51558,1.10911,-32.23417,-13.63372,49.64444
3403,3.99652,-8.30728,6.35361,-4.15802,40.93167,17.96721
3429,1.77231,-9.50319,8.24623,67.68031,187.84319,36.70499
3456,1.29945,-10.46805,2.36248,62.7975,177.40617,62.09559
3482,1.58077,-10.43453,-1.11989,60.11195,130.47018,59.34902
3509,1.45268,-10.14842,-1.0756,59.86782,171.66888,75.88953
3536,0.71527,-11.87584,0.12869,63.95717,227.21083,117.45444
3563,1.97103,-10.41298,2.90836,84.28186,207.92374,133.99495
3590,1.61429,-9.23384,2.67492,99.23547,154.76216,141.56331
3617,2.01532,-8.47727,2.17573,104.78966,138.46577,132.8353
3644,3.69126,-7.34122,-1.13425,88.37122,99.58641,102.01256
3670,4.0875,-6.89351,-1.78667,60.72231,57.35011,69.2367
3697,2.86047,-6.96773,-1.84773,37.28482,-14.48821,50.98721
3723,0.64703,-7.94217,-0.15742,7.37762,-56.05312,35.54532
3746,0.47824,-8.45572,0.61471,0.41962,-76.19471,27.18351
3771,0.03531,-9.496,0.85892,3.83758,-89.92761,16.5634
3795,0.744,-9.77972,1.57838,31.05924,-68.50428,-3.70025
3821,1.22882,-12.64917,3.68408,56.93813,86.21973,-18.95903
3847,0.68175,-14.50826,0.59316,44.36489,161.78119,-6.99615
3872,0.36332,-13.7505,-4.23115,-25.21513,64.24708,13.93889
3898,1.78188,-10.2406,-0.91399,-38.27664,-33.28702,32.31046
3924,3.98216,-11.72979,0.8278,-10.99395,-26.26799,13.38958
3950,5.74788,-12.4696,-1.485,-36.01834,5.40924,-41.35892
3976,4.04321,-11.52509,-5.84125,-117.19504,-38.90226,-72.85303
4003,1.07919,-11.1085,-4.69443,-181.83122,-54.09999,-94.27636
4029,0.0832,-12.97358,-1.54606,-196.84586,-100.24254,-108.55858
4055,-0.87568,-14.32032,1.09116,-182.44157,-116.53892,-98.24364
4081,0.65541,-17.23526,7.0216,-71.84595,-130.33286,-109.4741
4105,0.68534,-19.53968,8.43298,28.73991,29.82328,-87.80664
4130,-0.63626,-16.14829,-3.10588,-68.42799,87.19628,-71.38819
4156,1.16298,-9.02195,-3.73914,-86.55541,-80.95544,-78.5293
4183,1.51254,-8.44255,0.70928,-57.86892,-146.56818,-66.68848
4209,3.04123,-7.19757,2.83653,-33.1497,-118.85825,-72.24268
4234,1.63704,-6.49607,2.81498,-23.13994,-94.81042,-75.23341
4261,-0.12031,-5.92385,1.56521,-22.22441,-121.78793,-54.23733
4286,-1.09235,-5.13736,1.32818,-16.97539,-126.18246,-35.19437
4311,-1.67893,-4.29221,2.44508,1.27411,-87.54723,-27.25981
4338,-2.66534,-3.53205,1.89321,27.88542,-59.89833,-29.88431
4364,-2.92871,-3.30939,2.03567,80.49768,-7.65228,-26.0391
4391,-2.45825,-4.27545,1.01813,111.07627,21.3394,-0.70953
4417,2.38522,-11.20546,-6.6912,71.8307,96.90087,16.31926
4444,7.77457,-17.04971,-16.59242,-76.66772,233.86366,-17.49419
4470,11.99914,-21.49215,-20.94388,-60.00515,-49.82754,-93.11669
4496,5.66289,-10.34235,-6.09863,29.89957,-127.2811,-56.19045
4521,1.66098,-6.03159,-5.06194,35.75895,-118.79721,-7.66754
4548,-1.89202,-2.98138,-3.03286,-24.66581,38.06302,26.26799
4574,-2.21763,-13.66431,13.6667,64.14027,116.18797,54.09999
4601,-2.16975,-16.67861,-0.73801,-41.14529,89.57665,70.64051
4627,4.81055,-16.94436,-20.2328,-84.7854,82.13037,6.37054
4654,0.45669,-5.00568,6.63373,158.50055,-36.94913,27.97697
4681,0.80744,-5.64732,1.67055,63.89613,16.21245,29.99113
4708,0.78949,-4.71358,3.56676,13.96941,118.99558,41.89297
4733,0.66858,-6.63014,4.18087,21.35466,211.46378,47.26406
4760,5.4091,-12.78204,2.93709,73.72279,377.17407,45.00577
4787,4.54599,-13.00471,-0.0006,89.83605,316.56622,52.51308
4814,1.84174,-9.91978,-2.14101,60.29506,145.60689,53.79482
4841,0.12869,-8.64247,-1.47662,43.20523,5.10406,76.98817
4868,0.17059,-8.07385,-0.39205,32.09684,-67.28358,96.03111
4894,2.65457,-9.32482,1.94589,46.50113,-53.30654,87.4862
4921,2.90716,-9.89823,1.99856,60.29506,-11.49749,72.5326
4947,2.50613,-9.67916,1.02532,52.84878,-14.85442,63.43837
4972,2.08834,-9.16081,2.05961,56.81606,11.93999,54.64931
4997,1.18453,-9.15483,1.37128,60.35609,57.47218,43.17471
5024,0.0413,-9.65761,0.05926,45.28042,45.99759,52.8793
5050,-0.6207,-10.82598,0.03771,44.85318,44.1055,65.26942
5076,0.67457,-11.68191,-0.82301,27.21403,69.4961,70.88465
5102,2.26671,-10.37946,-1.77949,-11.97051,44.47171,60.87489
5128,2.95385,-9.32961,-1.05165,-28.14482,0.28229,48.5458
5153,4.30777,-9.86232,1.6526,-19.53886,-22.05656,35.66739
5179,5.48931,-12.64198,2.88681,-7.20977,48.92727,19.06584
5207,7.35559,-14.07731,1.35572,-49.56814,155.79974,-57.28908
5234,3.37882,-10.23701,-6.73908,-128.85275,178.1386,-119.23972
5260,2.05123,-11.79922,-5.78619,-153.633,52.58937,-180.88518
5286,-0.59915,-14.76684,-2.724,-120.61301,-70.94569,-166.54192
5313,-1.49697,-15.38095,0.77991,-100.47142,-145.46956,-140.47995
5339,-0.02334,-16.16385,2.48698,-63.48414,-218.28444,-132.72849
5366,-0.10355,-16.6834,4.26228,-37.36112,-85.96032,-112.03757
5394,-1.43113,-11.20905,0.80744,-55.67165,29.39603,-92.2622
5419,-0.24002,-8.20912,0.23164,-39.98563,-29.38078,-94.88671
5445,0.27833,-6.65169,-0.06644,-30.09794,-97.06872,-95.7412
5472,0.7416,-6.82168,1.70407,-21.61406,-130.14975,-90.12597
5498,0.20291,-7.46811,2.44628,-16.24297,-127.40316,-68.94678
5526,-0.22087,-7.25383,3.08912,-1.47247,-104.82018,-47.82864
5553,-2.19967,-5.34446,1.45148,6.46209,-94.38316,-33.54642
5579,-3.21122,-4.64894,1.69928,31.18131,-53.12344,-15.54107
5606,-3.8828,-4.15693,2.18531,70.48792,7.97271,7.04193
5633,-3.49494,-4.71837,-0.06404,106.31554,40.13821,47.56924
5659,-2.89878,-7.99963,-3.21481,85.62463,45.69241,85.2279
5686,2.36248,-13.25131,-9.52473,-87.0437,173.2558,15.58684
5713,25.67362,-21.90156,-12.28644,-57.25856,87.74561,-183.93694
5740,13.61164,-16.3111,-9.35594,0.11444,8.15582,-115.69968
5768,3.63141,-4.80816,-2.9311,3.41034,41.41995,19.43205
5795,-4.46578,-11.96921,8.68197,4.93621,100.92918,130.21078
5822,-4.05278,-15.00745,4.03243,-34.79764,-29.19767,131.7977
5847,5.18405,-6.96653,7.19757,-10.50567,-11.68059,19.55412
5873,2.86526,-7.04793,7.71232,95.81749,8.70513,-5.3482
5896,-0.41719,-8.29651,2.75992,78.17834,-2.6474,38.96329
5919,-0.92715,-9.65881,2.57077,45.28042,73.89063,69.17567
5945,0.10475,-10.80204,3.25911,37.77311,144.38618,75.82849
5971,1.78069,-10.65839,2.46543,77.568,169.89886,83.64098
5996,2.6438,-10.67036,0.7021,83.06116,126.686,76.19471
6023,2.41156,-9.83119,-1.2372,58.58608,46.97415,67.34461
6049,0.96666,-8.05828,-0.02334,43.75454,-2.22015,80.40613
6075,1.2815,-7.90146,0.75238,40.58072,-7.28607,88.09655
6101,2.06799,-8.2989,1.84533,45.15835,40.99271,68.32118
6128,1.44789,-9.44572,0.43515,33.2565,44.16653,57.7621
6155,0.77273,-9.59536,0.76794,29.47233,42.94583,66.61219
6182,1.00137,-9.38946,1.09235,40.51968,34.33988,57.64003
6208,-0.23762,-9.48283,0.33938,36.91861,16.21245,56.3583
6233,-0.59556,-9.87548,0.66858,30.8151,11.02447,65.5746
6259,-0.4974,-10.5315,0.83617,28.86198,25.55082,70.03016
6286,0.10235,-11.26651,0.05327,5.4245,56.92287,78.39198
6312,1.80463,-10.54107,-1.05524,-26.49687,5.83648,68.32118
6340,2.00814,-9.76655,-0.73322,-36.14042,-68.50428,65.14735
6365,3.97737,-11.78366,2.9311,-8.73565,-71.86121,61.058
6392,6.49966,-13.10167,3.48895,4.63104,17.37212,-6.20269
6418,6.94378,-12.28884,1.66936,-22.77373,98.1826,-63.63673
6445,3.41952,-8.34559,-3.94145,-91.62133,145.11861,-123.0239
6471,2.50972,-10.18673,-5.24749,-141.30391,122.16941,-181.86174
6498,0.51415,-13.36264,-3.63979,-133.97969,40.87064,-196.93741
6524,-1.08397,-16.46552,-0.86491,-89.24097,-110.31333,-187.90422
6552,-0.27234,-18.19174,1.12468,-70.38111,-174.88849,-179.78654
6577,-1.44191,-19.42954,4.54001,-25.88652,-143.4554,-150.24556
6603,-4.25749,-12.51629,0.89124,-21.8582,41.78616,-101.72264
6630,-1.09714,-7.87752,-1.62626,-27.04618,13.28277,-96.29052
6657,0.38607,-5.87118,-1.12468,-20.94267,-75.27918,-104.04198
6684,0.3729,-6.8133,1.45388,-15.20537,-115.9896,-88.7832
6710,-0.50458,-7.18201,2.06081,-8.1253,-113.97544,-57.41115
6736,-0.79428,-6.53797,2.48698,8.59832,-96.21423,-34.64505
6763,-1.64422,-5.49769,1.98659,23.8571,-92.79626,-14.62554
6791,-3.59549,-4.4586,1.34494,34.90445,-66.06288,10.76507
6817,-4.0887,-4.30058,1.51014,59.01332,-4.66156,28.95353
6843,-2.37924,-5.88435,1.61788,102.34825,36.65921,50.92617
6868,-2.07039,-9.58818,-1.01694,120.04843,50.81936,83.64098
6894,3.40635,-14.67227,-8.70592,-46.15017,150.12349,46.04336
6921,21.56158,-18.69572,-17.22568,-52.00954,111.7324,-165.01605
6948,16.22132,-14.63755,-6.70436,-31.13554,33.66849,-133.644
6975,4.17609,-5.94301,-0.02334,3.10516,75.11133,16.68547
7002,-5.23911,-18.46947,-0.10355,-36.75077,82.19141,93.89489
7027,-7.53515,-15.7736,-3.72957,-20.02715,-127.76937,80.5282
7052,-2.55641,-6.17165,3.24833,23.12468,-88.40173,31.82218
7078,-0.32262,-2.01771,4.53881,47.90493,-68.13807,39.5126
7105,-0.30347,-6.94259,4.06356,35.94205,20.97319,64.59804
7132,0.37888,-11.96682,3.34051,-5.68389,138.58784,60.63076
7158,-0.41958,-15.11878,2.90477,30.38786,175.26994,67.95496
7184,1.45627,-10.72782,0.04729,74.39417,101.23436,72.59364
7211,1.50535,-9.20511,-1.28868,53.45913,10.35308,65.63564
7238,1.70766,-8.45452,-0.03172,47.78286,1.93024,60.81386
7264,2.03088,-8.57304,1.09954,39.23795,13.40484,52.39101
7289,1.37487,-8.85077,1.70886,41.00797,32.87503,56.66347
7316,1.35452,-9.48164,2.22361,45.28042,67.84815,55.62587
7342,0.31663,-9.09737,-0.35973,28.25163,66.56641,63.07216
7369,0.20051,-9.04948,-0.23284,22.14812,41.72513,78.81921
7396,0.94032,-9.01118,0.35135,34.90445,4.37164,80.22302
7422,1.46585,-9.14525,0.88286,31.8527,-10.21575,72.83778
7449,1.25157,-9.89224,0.89962,19.64568,-19.30998,68.80946
7476,1.47543,-10.84394,1.19531,29.16715,4.1275,63.37733
7502,2.1075,-9.60853,-1.42874,2.86102,47.21828,41.89297
7528,1.61309,-9.31883,-1.97222,-49.07986,27.93119,27.30558
7555,1.41078,-9.68036,-0.04968,-33.45487,-22.85002,19.49309
7582,1.55563,-11.45326,-0.28192,-25.27617,-37.98672,2.03705
7608,1.69809,-12.551,-0.66379,-51.21609,-18.94377,-2.54059
7635,4.05757,-11.36348,-0.25438,-84.90747,11.81792,-50.39211
7662,5.50008,-9.4553,-0.61112,-118.29367,39.89407,-90.73632
7688,4.874,-8.43298,-1.15101,-149.7878,104.04198,-146.33931
7714,3.28664,-10.08737,-1.62267,-140.57149,105.07957,-186.31731
7741,-1.68492,-13.77444,-1.01574,-92.9641,-92.0028,-178.56584
7768,-1.44311,-16.07287,2.03567,-38.76492,-271.14087,-121.55905
7793,-0.81104,-17.7153,6.1944,23.73503,-199.48563,-90.187
7819,2.29424,-11.65438,1.64182,25.74919,27.32084,-89.69872
7846,3.12383,-8.92858,-2.41156,5.18036,-45.00577,-99.52538
7872,2.44388,-8.92498,-2.36487,18.54704,-259.78833,-90.49218
7898,0.08918,-11.17075,4.47297,28.98405,-262.84009,-67.97022
7925,-1.28748,-10.85112,6.4398,52.60463,-201.37772,-49.29348
7951,-1.93033,-9.07821,6.37995,75.49281,-150.90167,-39.34476
7977,-3.00293,-5.18644,1.58197,80.0094,-169.82257,-24.69633
8004,-3.76309,-5.31932,1.40959,87.8219,-161.39972,4.60052
8031,-3.90554,-6.15849,1.59633,111.80869,-131.00423,44.15127
8057,-1.80463,-9.8683,-1.55084,123.28329,-151.63411,80.7113
8083,3.29622,-12.77247,-14.61241,-33.76005,-352.98892,70.21326
8109,9.32003,-13.5027,-12.74493,-30.46415,-369.77359,41.28262
8135,10.22983,-10.90499,1.31621,-5.31768,-264.67114,-35.92679
8162,-0.3298,-10.63684,3.73196,-37.66629,-177.75714,-21.70561
8188,-1.90997,-10.18434,7.38671,-2.99835,-54.83242,-17.61626
8213,-3.42431,-10.36989,7.09222,26.60368,-71.86121,-9.98687
8240,-4.41311,-12.33792,4.1713,47.96597,-146.32405,17.11272
8266,-3.81097,-12.11646,4.42748,77.87317,-173.24054,46.34854
8293,-2.51571,-13.2968,1.17495,70.54896,-237.75465,74.18055
8320,0.30347,-9.60733,-0.46627,79.46008,-310.9968,102.37877
8346,1.73759,-7.71112,1.53049,130.42441,-291.46555,95.42077
8372,3.44825,-7.27418,2.37684,134.7579,-217.12477,48.78994
8399,3.31537,-8.69873,-5.52163,24.46745,-188.43828,-18.59282
8426,0.07003,-11.64121,-0.61471,-47.73709,-85.34998,-27.13774
8453,-3.63739,-13.25251,4.34488,-9.71221,-8.5678,-7.05718
8478,-3.49733,-9.53431,-2.0225,-28.69413,-64.29285,2.58636
8504,-2.50972,-8.75979,-0.13467,-47.2488,-86.02135,27.54972
8530,-0.39684,-8.81605,2.61746,-32.2952,-83.45789,25.53556
8556,1.73879,-9.84795,4.22996,1.27411,-66.97841,13.20647
8583,1.39881,-9.63965,2.33973,20.62224,-63.68251,3.68499
8610,0.12629,-9.38946,0.54648,-2.08282,-44.45645,13.93889
8635,-0.27593,-9.59656,2.09074,-15.20537,-15.52581,25.5966
8662,0.41839,-9.75099,1.99257,-10.99395,-53.30654,31.02872
8688,0.54767,-9.89583,1.68971,4.44793,-111.16782,40.3671
8714,1.20129,-9.37629,1.3617,7.62176,-120.26205,42.8085
8741,1.57,-9.85394,1.4048,-5.01251,-112.63267,40.5502
8767,1.72682,-10.49438,2.23439,-12.33672,-96.88561,34.44669
8794,1.9806,-11.04266,3.28544,-3.30353,-79.24647,21.32414
8820,0.86969,-11.01033,1.29466,-3.12042,-72.95985,14.67131
8846,0.48662,-11.09054,-0.98462,-31.68485,-58.49453,9.30022
8872,2.15658,-11.23778,-4.6262,-106.3308,-54.22207,-16.94487
8897,1.90638,-11.16476,-1.65739,-105.41527,-76.0116,-41.48099
8923,2.04166,-11.04146,-1.16179,-105.59837,-83.51892,-73.21925
8949,1.80463,-10.7338,-1.40839,-115.18088,-107.13951,-98.30467
8976,0.95349,-12.24694,0.69731,-115.66916,-108.48228,-118.6904
9002,0.00778,-13.82951,1.6526,-110.84739,-36.27774,-130.22604
9028,-1.21925,-15.029,2.85449,-70.99146,8.6441,-131.32468
9053,-2.70126,-12.02308,4.76985,5.97381,-22.85002,-112.70896
9079,-0.23643,-9.44094,0.50458,6.27899,-1.24359,-109.41306
9105,2.75393,-7.52557,-2.64021,-22.10234,-23.64348,-133.15573
9131,2.57077,-9.70909,-0.60633,2.55585,-98.77769,-136.14645
9158,1.30065,-10.486,0.06524,19.52361,-122.15415,-114.90623
9184,-0.23523,-10.0323,0.51894,19.09636,-129.53938,-87.9287
9210,-1.2815,-8.24384,0.87927,13.11492,-118.55307,-68.33644
9236,-2.65337,-6.13095,1.13784,17.99773,-96.76353,-52.71145
9262,-2.45226,-5.73471,0.71646,36.67447,-77.0492,-44.47171
9289,-2.1865,-5.44382,-0.05088,56.57192,-45.0668,-23.29252
9317,0.48902,-7.516,-3.4291,54.98501,-5.63812,15.22063
9343,2.57556,-9.13328,-6.56789,23.73503,-5.76019,30.17423
9370,11.50474,-10.65001,-7.39868,0.05341,-33.95841,-14.86968
9397,15.83585,-11.88422,-8.69634,-25.39824,-83.33582,-93.91015
9422,9.99519,-11.397,-4.95899,-2.99835,-47.69131,-58.14357
9447,6.12856,-7.75901,-2.46184,9.81902,0.8316,-33.30228
9473,-5.94899,-13.66431,0.33698,-6.41632,106.11717,21.93449
9499,-9.90541,-17.95232,-5.70119,-69.28248,57.59426,91.08727
9524,-4.43227,-10.12209,-7.29334,-2.93731,43.12894,41.40469
9549,2.06679,-9.06265,6.21475,53.15395,104.40819,28.8925
9576,1.81899,-9.88985,3.64936,35.08756,30.25052,70.09119
9603,2.59591,-10.19391,2.71921,16.28874,47.27932,75.76746
9629,5.00328,-9.32003,2.13383,47.96597,93.666,58.49453
9655,1.98659,-10.83676,-1.08996,48.027,33.18021,58.49453
9680,1.16418,-10.70388,-1.22523,32.27995,-8.62884,63.13319
9707,0.71766,-10.24778,0.59316,46.8063,7.17925,72.47157
9734,0.82899,-9.29489,1.8166,67.25306,13.77105,76.07264
9760,0.8278,-8.80527,1.51972,66.2765,25.42875,82.29822
9789,1.18094,-8.44016,1.29227,64.99476,23.47563,86.20447
9816,2.30502,-8.08821,0.80984,60.96645,32.87503,75.95056
9843,2.54204,-8.35756,0.45789,46.37906,56.19045,58.92177
9870,1.33537,-9.14884,-0.65302,30.32682,40.38235,57.33485
9896,0.90202,-9.12251,-0.42916,27.09196,6.44683,61.36318
9921,0.97384,-9.01118,-0.07961,42.2897,-20.10344,59.53212
9947,0.56922,-9.21708,-1.0325,38.56656,-26.69523,47.44717
9974,-0.2472,-9.88386,-0.15742,7.49969,5.10406,50.37686
10000,-0.331,-10.22384,1.42395,-0.25177,34.64505,52.32998
10027,0.38128,-10.76014,1.01694,-2.08282,34.95023,44.82266
10051,0.2891,-10.57698,-0.22565,-16.18193,-9.97161,49.27822
10075,0.63985,-11.39341,0.98701,-5.50079,-18.51653,49.94961
10100,1.59274,-12.37024,2.99215,14.09148,44.22757,35.66739
10127,1.84054,-12.5522,1.34494,-26.25273,66.38331,22.42277
10154,4.61662,-11.00914,0.15742,-29.42655,40.26028,-6.87408
10181,6.05553,-8.43417,-0.82181,-47.55398,52.65041,-62.78224
10207,5.75506,-8.86992,-5.64373,-123.84787,86.28076,-153.90765
10234,2.93828,-12.42172,-3.95582,-159.0041,73.34132,-199.74503
10261,-0.18136,-15.47313,-1.4862,-110.60325,-56.41933,-199.50089
10288,-2.65697,-19.01056,1.99736,-74.59254,-124.83968,-166.35883
10315,-3.6745,-18.97584,5.06793,-0.92316,-112.93784,-118.81247
10341,-3.43508,-15.95795,5.74429,51.01772,-49.15615,-91.89599
10368,1.23481,-6.97611,-5.04279,-11.29912,52.52834,-99.22021
10394,1.63823,-6.87315,-1.90399,-9.10186,-59.71523,-112.9531
10420,1.13066,-7.45734,-0.1251,-5.98907,-137.22981,-97.32811
10445,-0.58119,-8.16243,1.82977,-7.51495,-141.86848,-70.59473
10470,-1.07799,-7.64289,2.40677,0.29755,-120.13998,-52.77248
10494,-1.68372,-6.63134,2.0237,11.10076,-102.62291,-38.06302
10516,-2.89399,-5.85921,1.5257,19.70671,-84.98376,-23.47563
10540,-3.31178,-5.14813,0.76914,39.97037,-72.47157,-13.46587
10563,-3.70084,-3.82294,1.8166,68.3517,-12.29095,11.00921
10588,-3.13581,-4.91949,0.99659,83.00012,30.92191,40.67227
10613,-2.25354,-7.60219,-0.24002,80.49768,72.24268,90.72107
10641,1.05764,-11.07737,-2.98976,-12.21465,129.24947,79.91785
10668,26.58701,-19.84733,-13.87141,-62.99586,35.01126,-104.89647
10695,25.90107,-19.37687,-4.86801,-30.95243,15.54107,-161.78119
10722,8.32165,-10.89541,-2.09792,22.45329,15.54107,-13.03863
10748,-4.28023,-8.14926,3.78344,16.47185,65.71192,79.18543
10776,-5.87597,-13.90971,2.5612,-55.67165,69.4961,111.10679
10801,-8.69634,-15.50904,-8.5467,-59.51686,-139.48811,81.50476
10826,2.78506,-6.86118,8.6293,53.27602,-6.00433,13.26751
10852,0.80744,-5.85562,4.51008,51.26186,-10.03265,42.8085
10878,-1.06362,-7.22989,2.57437,9.57488,25.73393,80.46716
10904,1.01813,-10.99597,4.53043,6.6452,108.68065,72.71571
10930,1.25516,-12.49474,4.49451,60.11195,174.4765,78.63611
10956,1.32459,-12.52108,1.6526,83.61047,129.85983,92.97936
10982,2.1482,-9.68993,-1.02053,75.85901,40.19925,83.15271
11007,1.83097,-8.5479,-0.76435,63.04164,0.28229,85.89928
11032,1.97821,-7.73028,-0.81582,41.55728,-12.84026,85.16686
11058,2.15658,-7.39868,-0.67576,26.66471,-15.83098,77.53748
11083,2.08355,-8.49882,1.06482,31.36442,0.40436,56.3583
11109,0.73083,-8.80049,1.29107,28.06852,21.88872,49.94961
11136,-0.55366,-9.0435,2.32417,30.32682,42.33548,60.08144
11162,-1.48979,-10.26933,0.46866,50.04116,21.94975,64.41492
11187,-1.69689,-9.87429,-1.84054,40.09244,-12.96233,72.8988
11212,-1.55683,-9.92217,-1.82498,-1.83868,0.8316,86.99792
11239,-1.17495,-10.58417,0.89603,-8.67461,45.99759,97.55699
11265,1.34973,-10.64163,0.89124,-13.19121,41.23685,90.90417
11291,2.28108,-10.21666,-0.4938,-28.20585,-48.30166,65.02528
11317,2.21284,-9.98083,-0.03053,-28.20585,-89.50036,62.03456
11344,4.97216,-11.42453,3.57394,-8.67461,-59.77626,23.46037
11369,6.11419,-12.50192,3.89118,-5.62286,40.6265,-43.73928
11396,5.50846,-11.56459,-0.3322,-52.31472,114.84519,-115.88279
11423,1.10792,-10.13525,-6.59543,-105.90354,128.82224,-161.72015
11448,-0.23882,-11.92253,-5.69401,-128.18137,64.85744,-205.11612
11474,-2.30143,-14.6591,-3.60267,-106.3308,-39.5126,-204.74991
11500,-2.11588,-16.81388,0.9511,-91.98754,-119.6517,-176.49065
11527,-2.12186,-18.03013,4.14137,-35.83524,-121.78793,-157.69185
11551,-3.35368,-17.10118,5.63535,18.36394,-20.46965,-120.03317
11576,-3.41234,-13.35067,2.43311,-5.80596,84.93799,-88.66113
11600,0.42318,-6.91386,-1.71485,-5.867,16.33452,-99.70848
11623,0.64464,-5.99448,-1.13784,-1.04523,-78.02576,-106.30028
11647,0.02215,-6.28418,0.10475,-5.13458,-93.89489,-96.35155
11673,-0.60035,-6.71394,1.22523,-2.08282,-93.95592,-76.02686
11699,-1.96504,-6.38593,1.19052,2.92206,-89.86657,-48.25588
11724,-2.58035,-5.84006,1.00975,4.02069,-84.73962,-25.61186
11751,-3.11905,-5.54437,0.95229,12.32146,-63.68251,-3.88336
11777,-3.06757,-5.09546,1.2815,37.95621,-14.85442,18.76067
11803,-1.90279,-5.12539,1.4455,74.94349,44.71585,55.13759
11828,-1.1151,-7.28017,-0.83258,71.89173,55.33596,86.2655
11854,1.76752,-10.9026,-5.29777,0.96893,62.11085,64.84218
11880,25.73108,-17.52256,-10.63445,-25.70341,63.20949,-113.62449
11907,22.84727,-18.88846,-11.4796,-83.86987,-33.16496,-180.45793
11932,6.78337,-12.78444,-3.61584,2.3117,-19.61516,-20.60698
11959,-3.81815,-5.45459,1.28748,16.59392,38.5513,45.00577
11985,-7.01681,-12.12603,1.92913,-28.02275,106.72752,103.4774
12012,-9.11054,-15.57009,-5.91667,-69.40455,-75.1571,120.13998
12038,5.62937,-9.16441,11.15399,57.0602,-50.43789,5.82122
12065,3.69485,-7.55191,3.80618,29.89957,-13.20647,2.89154
12091,0.03531,-8.55508,3.1801,19.03533,43.73928,98.41149
12119,3.38121,-10.8607,3.04004,30.75407,122.84079,83.21375
12145,2.24037,-11.08216,1.63344,43.51041,123.0239,44.21231
12171,0.21009,-10.95527,0.72484,56.75502,55.5801,61.11903
12197,0.19812,-10.02512,0.9068,59.86782,29.94535,75.64539
12224,0.85533,-8.85077,1.1965,68.59583,37.87991,72.04432
12250,1.072,-7.93738,0.34058,53.70327,35.31644,63.56044
12277,0.10714,-7.84759,0.60992,31.91373,33.36332,68.1991
12303,0.38846,-8.67599,2.12545,39.05484,59.97463,70.21326
12330,1.04327,-9.0447,1.56162,43.75454,67.2378,61.60732
12356,0.2879,-9.26137,-0.35135,26.1154,46.24173,75.82849
12384,0.89244,-9.36911,0.35733,25.74919,35.92679,82.66443
12410,1.41078,-9.52593,0.63147,29.28922,18.47075,77.53748
12436,0.73682,-10.2801,0.30347,20.80534,-2.89154,76.56091
12462,0.79906,-10.62247,0.64224,20.80534,-8.01849,69.96912
12488,0.86491,-11.04745,0.42796,12.26043,14.19829,58.25038
12514,0.28431,-10.99836,0.12749,-12.39776,34.82816,58.12831
12541,1.06003,-9.35834,0.29149,-29.12138,4.43267,53.00136
12567,1.19531,-10.10652,0.89962,-25.3372,-13.87786,47.38614
12594,2.33854,-11.8088,1.96863,-10.13946,-1.4267,21.26311
12621,4.16412,-12.43249,0.68055,-25.39824,-21.08,-15.78521
12648,6.22911,-10.94809,0.76315,-35.71317,32.02055,-77.06446
12675,3.61943,-8.61972,-4.61063,-111.88499,106.66648,-163.97845
12702,1.42275,-11.29644,-3.4267,-123.11544,92.20116,-212.80653
12728,-1.48979,-14.6184,-3.10588,-94.24584,-53.67275,-203.3461
12755,-3.06997,-17.24364,0.52732,-88.93578,-126.48763,-163.06293
12781,-2.5995,-17.52616,3.92589,-38.45975,-122.52036,-135.78023
12806,-2.77907,-15.70536,5.7826,19.76775,-42.44229,-106.84959
12831,-2.58394,-12.43129,1.92554,-16.54815,46.48586,-80.36035
12857,0.80744,-7.27179,-1.33656,-27.5955,-17.29583,-92.20116
12883,0.79428,-6.66725,-0.41839,-16.24297,-97.7401,-102.5161
12910,-0.20411,-7.03476,0.81104,-6.59942,-99.81529,-86.89111
12937,-1.31023,-7.45375,1.79266,4.57,-98.5946,-67.42091
12963,-1.83575,-6.88872,1.49937,13.17595,-91.51452,-46.42483
12988,-2.7683,-6.13694,1.22044,25.68815,-79.79578,-23.53666
13014,-3.81336,-4.68485,1.2372,46.13491,-56.96865,1.67084
13041,-3.71401,-4.9135,1.03968,71.46449,-22.23967,38.71915
13069,-2.95265,-5.8221,0.56324,93.37609,25.06254,92.79626
13095,1.19171,-11.95724,-4.48494,70.9762,78.22412,123.619
13121,12.31637,-15.98189,-14.77522,-61.8362,91.28564,-23.04838
13147,27.45491,-19.72164,-9.15483,-33.94315,-14.79339,-181.92278
13173,8.02237,-9.11054,-2.396,-26.80204,-39.57364,-73.58545
13199,1.71245,-6.15968,3.23995,26.05436,37.14749,-7.05718
13226,-4.11503,-12.99633,3.11665,-32.53934,101.47851,11.8637
13251,-13.24053,-13.00231,-12.89697,-66.5359,-109.94712,23.3383
13278,-6.99167,-7.00723,6.84442,11.1618,-51.29238,71.37293
13304,-1.4455,-4.55796,6.07828,29.41129,-79.06335,90.17175
13332,2.57676,-11.19469,5.87956,15.43425,-31.88322,75.70642
13358,2.22122,-14.6591,6.65409,32.64616,138.46577,62.09559
13385,1.72083,-14.02224,5.615,86.29602,202.97989,80.03992
13411,1.67055,-9.5367,-1.91716,84.09875,75.53858,95.54284
13435,2.28347,-8.78852,-1.84892,70.36585,9.01031,83.88513
13462,2.396,-8.43417,-1.12827,54.6188,8.88824,65.39149
13489,1.9423,-8.46171,-1.02292,31.97477,-5.02777,60.38661
13516,0.60394,-8.06068,1.03729,35.88102,-19.67619,68.32118
13542,0.89004,-8.01279,2.25115,49.30874,13.89312,56.41933
13569,0.35255,-8.40065,1.57598,36.5524,24.94047,56.48037
13594,-1.31023,-9.67796,0.72365,32.95133,21.21733,82.42029
13620,-0.63027,-9.87548,1.5281,48.027,25.36772,87.60828
13647,0.34656,-9.99998,0.55486,46.44009,6.62994,75.76746
13673,-0.04848,-10.36749,-0.7452,20.50017,-17.90618,69.72498
13700,-0.11911,-11.03428,0.4555,16.16668,6.08062,64.537
13726,0.34058,-10.68113,0.82301,-7.20977,48.13382,53.61172
13752,0.81104,-8.61015,0.03891,-44.25809,23.90288,41.46572
13779,-0.01616,-9.63008,0.89723,-46.27224,-24.25383,60.0204
13805,1.6107,-11.30482,1.79505,-13.67949,-25.96281,33.4091
13832,3.87801,-12.89816,3.90075,9.81902,22.01079,-3.76129
13857,5.17806,-10.04787,0.41001,-25.76445,73.21925,-73.09718
13884,4.34248,-8.48804,-2.20686,-78.55981,127.11325,-131.32468
13910,1.02891,-10.85232,-5.88794,-134.34592,98.42675,-173.07269
13936,-0.22206,-13.19624,-3.0137,-111.88499,34.64505,-195.83878
13963,-1.96863,-14.5777,-2.99694,-107.61253,-78.39198,-186.50041
13987,-1.58077,-18.16421,2.71083,-81.00122,-112.75474,-170.32611
14012,-2.86406,-18.56883,6.33087,-3.91388,-73.69227,-135.41402
14039,-3.46142,-15.14153,5.79936,50.22427,-7.89642,-94.58154
14066,-2.71802,-10.49917,-1.76872,-15.26641,55.76321,-77.55274
14091,1.38564,-6.09863,-1.71006,-12.94707,-46.47061,-100.19676
14118,0.65781,-6.75704,-0.52253,-5.98907,-115.19614,-100.80711
14144,-0.18495,-7.89428,0.9511,1.76239,-122.03208,-83.35107
14170,-1.97103,-8.26897,2.08595,11.46697,-110.37437,-60.15773
14196,-2.973,-7.26461,1.51014,17.87566,-91.94176,-33.11918
14223,-4.05757,-6.12976,0.97863,18.66912,-69.35877,-7.97271
14249,-4.86562,-4.42987,1.9004,32.70719,-19.06584,15.58684
14276,-4.50289,-4.93505,1.82737,67.80238,36.59818,59.59315
14303,-3.62303,-6.40988,0.71407,76.5304,64.9795,103.4774
14331,4.98772,-13.5027,-7.69197,-2.32696,131.20261,88.15759
14358,20.69608,-16.40926,-13.45362,-8.55255,55.397,-96.10741
14384,29.34394,-18.78551,-8.75739,-48.83572,-6.61468,-143.40962
14410,5.13377,-8.07744,-0.01377,-5.62286,8.88824,-34.76712
14438,-0.95589,-9.19194,1.40599,8.65936,55.33596,0.93841
14464,-5.83168,-15.0697,-1.44191,-61.53102,72.66993,28.52629
14491,-8.69873,-8.76817,-4.05039,-42.79324,-19.79827,46.83681
14517,-2.40318,-5.64014,7.29334,28.49577,-52.69619,63.62147
14544,0.11911,-6.63493,5.67725,25.56608,-67.34461,85.77721
14571,3.57155,-12.5103,4.7483,20.3781,42.45755,69.2367
14597,3.55719,-13.28363,4.03124,57.73159,88.05077,35.97257
14624,1.20129,-10.58177,0.07242,58.95229,40.01614,52.08584
14650,1.08397,-8.76457,-1.94589,27.70231,-6.91986,50.92617
14677,0.97504,-9.38946,0.03412,31.05924,-4.53949,35.91153
14704,-0.59077,-9.97963,1.43473,33.2565,10.16998,52.39101
14730,-0.21967,-9.06983,1.66936,38.8107,8.88824,64.41492
14756,0.28431,-8.4665,1.97941,52.90981,9.55962,69.72498
14783,0.68534,-8.28334,1.6933,55.8395,17.18901,70.39637
14808,1.39043,-9.05307,0.77512,43.57144,43.00686,67.40565
14834,1.02412,-9.40622,0.41719,34.23307,36.72025,79.97888
14861,1.08158,-9.4146,0.23643,36.06412,8.94927,86.50964
14887,2.26791,-9.29369,-0.14545,43.87662,-17.41789,74.85194
14914,2.48099,-9.36312,-0.90561,32.52408,-39.14639,52.63515
14941,1.94589,-9.83957,-1.22284,10.67352,-35.8505,41.64883
14968,0.64584,-9.63965,-0.20411,-15.02227,-10.76507,34.8129
14993,0.64703,-9.7845,0.11672,-19.35576,-18.6386,25.96281
15018,1.33177,-10.11849,0.89842,0.54169,-38.65811,-5.1651
