timestamp,ax,ay,az,wx,wy,wz
23,-1.74118,2.21404,8.43298,-15.67076,-7.2937,5.08117
44,-1.57,2.03447,8.58261,-22.26256,-12.11547,11.06261
70,-1.6933,1.93511,8.41143,-28.54917,-22.61351,19.9127
95,-1.63105,1.6933,8.36714,-33.61509,-32.80637,31.02109
118,-1.10433,1.55444,8.80647,-27.75572,-45.86789,35.53769
142,0.03172,1.43712,8.17081,-19.57701,-70.46503,34.5001
166,0.52253,1.11151,6.84083,-30.56333,-107.2692,31.69248
188,1.06362,0.7452,7.2275,-35.14096,-130.09633,33.70664
208,1.72083,0.62668,7.00723,-30.62436,-173.18712,36.14804
231,2.63661,0.79069,5.71197,-27.87779,-239.89851,32.79111
256,3.48775,0.75357,5.88914,-22.01842,-256.25592,28.09141
280,4.14736,0.27114,7.40946,-11.76452,-225.61629,26.87071
304,4.13419,-1.41916,8.22708,-21.95738,-152.92346,43.77743
329,4.31375,-0.7452,6.88273,-15.5487,-143.09682,56.59481
354,5.43783,-0.77393,4.89076,-16.7694,-182.22032,65.20076
379,3.58831,-2.26551,4.94223,-13.10729,-202.11777,104.14116
403,4.36762,-4.20242,6.40868,23.75792,-248.56551,165.72559
427,6.7702,-4.07553,5.32291,85.03716,-324.49316,196.60934
452,9.49959,-2.45705,6.17884,139.96877,-348.84616,177.56639
477,8.69035,-4.01448,7.17722,165.84764,-312.89648,184.95164
504,9.72465,-5.038,4.36643,178.05467,-290.74075,197.15868
528,11.75254,-3.97856,3.59789,182.20506,-285.24759,200.27145
552,14.6986,-2.50493,4.03962,185.562,-246.97858,189.22411
575,15.22652,-2.21164,4.47776,177.87157,-176.60509,178.4209
599,17.27357,-0.34058,0.6207,147.53712,-120.819,162.55176
623,17.72607,0.73921,0.72245,71.3653,7.84301,119.27786
649,16.50982,-0.11432,0.27473,32.48594,59.35665,108.0474
674,15.25525,-0.38726,0.19692,15.27404,117.70621,82.90093
699,14.80275,-0.23284,-1.6095,11.30675,84.68622,42.31259
725,11.30961,-1.3234,-1.47423,28.27452,43.67062,28.7628
749,10.86549,-1.59873,-1.37367,43.83847,10.89477,15.51818
774,10.32559,-1.79386,-2.23439,40.2374,-8.88061,9.23156
799,10.40819,-2.45346,-2.4355,29.61729,-21.0266,-10.97106
825,9.97963,-2.99215,-1.89441,13.93126,6.98852,-22.56773
850,10.28489,-2.15777,-4.47656,-39.35239,21.33177,-43.62484
877,10.93731,-1.86927,-3.72598,-46.98178,15.89965,-69.6258
903,10.5303,-3.38121,2.26192,11.48986,-13.33617,-73.9593
930,8.93217,-3.75231,1.16777,51.77303,-54.47383,-67.18439
956,9.04709,-3.54881,-0.83498,29.12901,-69.61054,-68.03889
982,8.35995,-4.53881,3.32974,41.15292,-36.28537,-41.73276
1008,7.90506,-3.1777,1.25277,27.48106,-54.90108,-11.52038
1034,8.90583,-3.35368,-1.4024,-5.35583,-78.27753,-16.15905
1061,9.0447,-5.29897,0.91518,-7.98034,-92.98699,-29.40366
1087,8.3408,-6.72831,0.21249,-14.81627,-103.17986,-30.74644
1112,6.8145,-6.97491,-1.99856,-56.07601,-111.05338,11.61193
1138,7.80689,-6.26263,-2.67612,-77.37726,-84.25897,41.94638
1163,11.30363,-6.08546,-2.40438,-81.46661,-85.54071,35.23252
1191,11.65438,-5.11461,-1.38684,-78.29279,-54.77901,11.36779
1215,10.81042,-4.51008,-0.31663,-63.7054,-48.91964,4.59289
1236,9.39904,-3.29741,-2.8497,-53.51254,-79.68134,3.37219
1279,11.51671,-3.17651,-2.56,-33.49302,-73.45576,-10.05553
1302,9.58459,-4.12222,-0.68295,-20.98082,-47.02755,-14.87731
1331,7.42622,-5.16609,1.80702,39.32187,-28.96116,-8.52966
1351,5.64613,-5.27383,1.09954,57.81551,-40.86301,-12.68004
1377,6.05075,-5.97653,-0.86012,62.94246,-11.9934,-6.94274
1399,5.5324,-5.53599,-3.30939,52.13924,33.17258,7.15637
1431,4.64774,-5.52642,-4.31974,10.87951,69.42744,32.79111
1454,6.95216,-3.43029,-5.07271,-29.58677,100.73846,41.27499
1476,8.16961,-2.78745,-4.53881,-46.92074,83.9538,52.01717
1500,8.39347,-1.95187,-2.90955,-23.23912,42.44992,66.97078
1521,9.55466,-1.30544,-2.1039,24.2462,-45.56271,68.19147
1543,10.89422,-1.18573,-2.78027,76.79743,-227.08113,51.28475
1565,10.09336,-1.58676,-4.19883,99.62456,-320.64795,51.40682
1587,7.55909,-3.03405,-3.05201,113.6016,-295.5015,65.50594
1609,7.41664,-4.86442,-4.57352,94.37553,-26.70286,50.97958
1631,8.4653,-6.78696,-6.31531,75.94293,79.86445,47.92782
1652,5.37438,-7.23707,-0.69013,77.28571,83.89276,81.80231
1674,5.21397,-6.78577,2.45585,105.48393,106.41472,84.85406
1695,4.376,-10.16159,4.17249,145.64503,156.9518,88.33306
1717,3.40994,-12.81796,4.0875,192.52,174.59093,115.06645
1738,4.77823,-12.67311,-3.81456,124.34379,2.53296,88.94341
1760,4.87639,-10.79007,-0.40043,77.59089,9.36889,76.00397
1781,3.94265,-8.47847,1.06243,46.40194,66.68085,84.9151
1803,4.32453,-6.57986,0.60154,27.29795,113.861,106.70463
1824,4.69204,-5.89991,0.70569,18.63097,135.16226,134.65871
1846,4.03124,-7.46093,0.21608,13.25988,131.31703,177.50536
1868,2.96462,-9.71268,0.39205,4.71496,122.28384,218.27681
1890,3.06159,-10.39862,1.08637,0.32043,88.59246,251.35785
1913,5.52402,-8.13011,2.75992,8.92638,47.75998,237.93013
1933,6.56909,-6.23869,1.77231,27.48106,-16.93724,170.18114
1955,5.69042,-6.64092,1.66337,51.58993,-90.54559,93.46001
1977,3.85646,-8.89027,1.65499,56.16756,-142.30336,23.51378
2002,2.16496,-10.9409,1.58077,35.59873,-152.4352,20.40099
2028,1.02053,-12.9664,2.95744,26.5045,-120.08659,37.36875
2051,1.30424,-11.24497,4.41431,46.40194,-61.85909,24.85655
2074,1.83935,-8.6281,3.25432,77.59089,-48.98067,3.43322
2097,0.77512,-8.19715,1.62866,101.33354,-60.57735,-10.66589
2122,-1.64901,-9.8288,-0.55366,86.01373,-75.04266,23.94102
2151,-3.35727,-10.5698,-3.51409,-22.81187,39.4592,55.67928
2176,2.01053,-8.78852,-1.95187,-57.72396,112.02995,24.49034
2202,1.30664,-10.64283,1.31502,-60.59261,121.06313,13.13781
2231,0.69133,-11.62564,2.58993,-49.54525,152.80141,21.13341
2257,2.11707,-11.5598,1.29347,-37.58237,167.08362,19.60753
2285,4.48973,-12.55699,-1.86089,-67.0013,175.44543,-36.54477
2310,5.45339,-12.71142,-5.03082,-131.57643,154.99866,-66.69611
2336,0.94511,-12.56297,-4.89435,-195.35814,86.2121,-76.03449
2364,-0.63985,-13.04421,-0.25438,-193.16086,9.91821,-79.26935
2390,-0.62309,-13.81873,3.52127,-144.45485,-2.9602,-95.62676
2415,-0.0844,-14.40651,3.77147,-84.57941,-33.05051,-108.32206
2441,-0.34058,-13.89056,0.4148,-48.56869,-95.24529,-86.59356
2465,0.59795,-12.52467,-2.80301,-56.13704,-81.45135,-72.98273
2490,1.27072,-11.32158,-2.88801,-69.01545,-17.48656,-73.89826
2515,2.54444,-7.06469,0.33459,-46.6766,-16.26586,-94.16192
2542,2.64978,-6.67683,1.45986,-19.14977,-62.53047,-119.12527
2567,1.60711,-7.18799,0.89603,-18.05113,-104.8278,-113.93729
2591,-1.16777,-8.00202,0.20411,-11.0321,-132.29361,-68.09992
2616,-0.31065,-6.83844,0.80864,9.65881,-121.36832,-48.32455
2641,-0.53331,-6.34404,0.93194,20.7672,-78.33857,-40.51205
2667,-1.42275,-5.56233,0.88765,29.73936,-60.33321,-14.26696
2693,-1.54246,-4.59148,0.55126,58.8531,-56.30489,-10.72692
2719,-1.9423,-5.50008,0.24481,104.08012,-38.54367,23.33067
2745,-0.42437,-6.77978,-0.85174,123.18411,-20.78246,49.14852
2772,3.25911,-13.55777,-9.52832,80.33746,43.06027,66.23836
2799,8.20792,-15.21575,-16.91923,-53.20736,38.97092,30.10557
2825,13.73853,-14.15153,-17.21491,-51.1932,-43.24337,-76.4007
2854,3.49134,-10.37348,-2.71682,8.19396,-89.26385,-71.27375
2877,-0.80864,-9.2087,-0.59915,-6.5155,1.00708,-35.99546
2901,-3.31298,-11.18511,0.67457,9.65881,45.98996,-11.27624
2928,-2.46304,-10.3208,6.57508,45.36435,90.17937,14.96886
2956,-0.54049,-9.89464,-15.71734,-50.70492,-81.14618,37.12461
2983,3.49613,-7.73746,1.37248,34.37803,98.96843,17.34923
3009,1.27192,-10.22623,3.80499,60.98933,30.2429,0.93079
3034,0.46986,-10.30165,2.83174,59.64656,-18.28002,35.23252
3057,1.84892,-10.08019,3.29502,106.21635,-33.05051,33.88975
3081,3.47937,-10.31482,1.4467,133.13283,-13.94652,9.84191
3107,3.84688,-11.11329,-1.24199,82.22955,115.56998,-5.35583
3133,-0.13108,-10.60571,-1.12946,45.60849,118.25553,21.43858
3160,-1.21685,-11.1061,-0.40282,26.07725,74.12714,73.98981
3188,-0.11911,-9.88985,0.30706,10.45226,75.16473,97.54936
3212,1.85491,-8.09779,2.55401,30.10557,95.85564,105.48393
3239,2.41036,-8.64367,3.73196,52.81063,130.09633,103.3477
3265,2.40438,-10.05146,3.74513,41.76328,158.7218,104.14116
3292,3.53683,-8.84478,1.67055,35.65976,146.20961,87.17339
3317,4.57233,-7.69197,0.04968,72.52497,93.41424,58.97517
3343,4.22397,-7.52198,-3.80139,35.29355,1.5564,31.02109
3368,0.09038,-9.64564,0.14784,18.63097,-32.44016,27.9083
3395,-0.78709,-9.88506,1.898,29.25108,0.76294,25.71104
3420,-1.28509,-9.8707,1.71964,32.4249,43.9758,34.5001
3446,0.22685,-11.00914,-1.31861,10.81847,43.67062,44.38778
3473,2.16376,-9.81563,-1.24199,-17.07457,8.5144,28.21348
3499,2.88681,-8.89625,0.52732,-8.04138,2.59399,-1.14441
3527,3.79062,-10.58536,0.14425,-15.60973,36.22434,-56.9305
3551,4.59268,-11.63283,-0.50817,-32.57749,57.09835,-104.78203
3577,4.96857,-11.79084,-0.77512,-60.22639,119.04898,-142.68483
3602,4.19763,-11.55502,-1.70886,-88.36359,144.6227,-151.84009
3628,2.28347,-10.95287,-3.09151,-81.9549,101.10466,-146.16383
3654,1.68731,-11.83394,-5.0799,-115.52421,-30.2429,-158.9812
3680,1.90878,-12.6743,-2.42832,-105.94169,-190.09386,-183.33421
3708,4.78661,-16.9707,4.33291,-40.26791,-222.44246,-212.14278
3736,2.17214,-19.87606,5.43544,1.66321,19.56175,-127.24294
3762,-2.12186,-17.07605,-1.00736,-58.70052,20.59935,-51.74252
3788,2.94427,-7.89069,-0.26995,-52.65804,-66.80293,-50.52181
3813,3.97138,-6.47213,1.49578,-1.08337,-129.42496,-71.15168
3837,3.78823,-6.46853,1.55204,9.17053,-137.78676,-75.42414
3863,2.41635,-7.1042,1.71126,10.63537,-120.63589,-60.89778
3889,0.66379,-6.73788,1.86688,8.49914,-85.11346,-46.06625
3916,-0.30107,-5.94061,1.67534,17.2882,-58.68526,-35.62925
3942,-0.94391,-5.58986,1.80224,34.5001,-31.82981,-22.75084
3968,-2.14221,-5.37917,1.20129,54.27547,4.36401,-1.93786
3994,-2.41755,-5.67605,0.54648,69.04597,23.95628,32.73008
4020,-0.89483,-6.66366,-0.80744,72.34187,16.75414,59.95174
4046,7.93618,-11.25574,-7.19517,27.7252,59.66182,51.16268
4070,16.33983,-13.64755,-11.04266,-52.35287,147.24719,-20.2484
4096,23.42427,-13.05019,-12.54023,-67.12336,59.17354,-102.03545
4123,8.12532,-7.35439,-4.90871,21.19444,-68.87812,-62.97298
4150,0.22087,-8.27376,-2.5169,17.53234,-61.85909,1.54114
4176,-2.73957,-12.82753,4.39994,-5.84411,50.01828,65.01765
4201,-3.40994,-15.05055,4.81175,-38.98618,28.04563,91.81207
4226,3.11186,-7.90625,0.48902,-7.79724,95.36736,33.15733
4252,4.08511,-5.83407,8.04512,104.56841,52.52071,23.63585
4279,0.68055,-7.20834,1.86688,63.67488,-79.43719,51.77303
4305,1.983,-10.23461,3.61824,18.692,-39.52023,84.06061
4331,4.87998,-10.31841,5.83407,48.11093,155.91418,64.83455
4356,5.77062,-9.5391,4.57233,75.51569,190.03282,52.38338
4382,4.35445,-9.39784,0.0401,66.11629,162.32288,55.86238
4408,3.94624,-9.2913,-0.62668,47.68368,128.14322,61.1114
4434,3.73076,-8.79929,-0.45071,46.40194,72.23505,61.59969
4461,2.86526,-8.24384,-0.7452,43.59433,-6.19506,67.09284
4488,3.25671,-8.59578,-0.082,41.27499,-20.90452,60.13484
4514,2.70964,-8.67599,-0.1227,31.87559,-41.65646,55.80135
4542,1.46944,-8.58261,2.64499,32.73008,-42.63303,63.55281
4566,1.75435,-8.94534,4.52205,45.85263,20.78246,58.24275
4590,1.57838,-9.67796,3.73675,44.38778,67.41328,51.65096
4614,1.072,-10.41418,1.78188,36.39219,72.72334,61.41658
4639,1.04327,-11.08815,0.55845,39.93222,61.92012,69.83943
4664,2.85449,-10.68113,-1.9387,29.12901,34.63742,73.13532
4691,3.76548,-9.55346,-2.55641,-25.74156,-26.64182,63.24763
4717,3.56078,-8.85795,-1.54725,-57.47981,-82.85516,66.48249
4742,5.93942,-10.72064,2.68689,-43.25863,-128.63148,59.34139
4767,9.59656,-12.25053,5.85801,1.11389,-19.92796,-4.86755
4793,10.02512,-11.94407,3.24474,-15.36559,73.27265,-80.9173
4819,6.80253,-11.37186,-2.11947,-133.10231,177.52061,-105.63652
4845,3.47818,-10.25736,-3.22439,-190.04808,179.47374,-176.49828
4871,2.04525,-12.68149,0.96666,-98.43438,140.2892,-210.80002
4898,-1.05165,-15.19181,0.40163,-30.07505,-20.72142,-173.81274
4925,-2.50254,-16.00943,-4.28742,-55.09945,-252.04449,-106.61308
4952,0.22206,-14.52981,-1.97941,-67.06233,-216.82724,-85.8001
4977,1.42994,-12.28405,2.70605,-36.78891,-95.55047,-74.02033
5003,3.4255,-7.90745,3.43867,-12.92418,-29.14427,-86.89874
5029,2.9718,-6.5248,1.54725,-20.37047,-31.15842,-92.51397
5056,1.99856,-6.22193,0.9894,-22.07945,-51.84933,-77.92657
5084,0.15742,-7.36157,1.35452,-4.13513,-64.54463,-58.39534
5110,-0.19692,-6.88632,1.14742,20.88927,-76.87373,-46.79867
5136,-1.19531,-6.39671,1.1163,37.24668,-63.81221,-20.61461
5164,-1.96863,-5.52282,0.81223,47.62264,-33.7219,6.91223
5191,-1.9818,-5.43544,0.71766,62.88142,3.63159,27.66416
5217,-1.09595,-7.34362,-0.35853,75.75983,47.94308,58.54793
5243,1.42994,-10.42016,-3.386,52.50546,90.60662,81.80231
5269,8.79091,-14.29398,-11.98837,-59.3719,184.9669,26.74864
5296,24.62496,-16.38173,-13.2968,-93.97881,54.90108,-122.116
5323,12.83352,-9.32242,-3.39797,-4.62341,-14.80101,-73.71516
5350,3.07715,-4.98174,0.4974,26.19932,70.34296,-8.28552
5376,-4.09109,-8.27616,1.17017,1.72424,56.18282,70.51081
5403,-4.24432,-14.13956,0.8254,-32.57749,-36.59055,62.14901
5429,-3.89357,-11.08695,-0.44113,7.82775,-16.08275,28.57969
5457,1.82857,-7.23468,3.19925,64.28522,-13.94652,23.87999
5484,0.02813,-8.97048,1.72203,50.18612,-22.97972,87.78375
5511,3.42311,-9.53431,1.78308,26.44346,26.15355,63.30867
5537,1.95187,-9.74979,3.87561,34.56113,102.69157,60.07381
5564,2.75154,-9.59656,2.84371,56.4117,119.78141,63.43074
5591,3.16094,-9.96527,1.73879,67.39802,85.54071,65.56697
5617,2.57437,-9.37031,0.49859,63.98006,43.36544,73.01325
5642,2.25235,-8.57184,0.4974,59.7076,0.88501,80.5816
5669,2.48099,-8.06188,1.05046,62.33211,4.11987,79.78815
5695,3.13581,-8.38988,0.61351,52.26131,53.43624,54.51961
5722,1.6945,-8.45692,-0.00898,27.42002,34.57639,56.96102
5749,1.42156,-8.44136,1.6119,29.25108,53.80245,59.40242
5774,1.25396,-9.64923,1.61309,33.76768,94.51286,46.76815
5798,0.48782,-10.35313,0.07123,16.12853,65.8874,54.1534
5824,0.50218,-10.67156,-0.23523,10.81847,28.04563,65.07868
5851,0.96786,-10.68832,0.98342,8.49914,40.98508,67.94733
5874,2.00095,-10.1987,-0.00299,-23.30015,42.38889,68.61872
5899,3.03884,-9.909,0.13348,-49.30111,1.5564,58.97517
5926,2.95026,-9.92576,0.64703,-44.2352,-56.488,65.20076
5953,4.34488,-10.40221,1.73999,-8.83483,-70.09882,40.72568
5979,7.8464,-12.72818,3.32136,9.65881,18.7683,-22.81187
6004,7.11257,-10.52312,0.55126,-34.04233,82.85516,-65.35335
6031,5.05715,-7.62853,-3.93307,-151.16872,167.81604,-113.02177
6058,4.99131,-9.83598,-1.29347,-157.15015,94.32977,-176.68138
6083,2.76351,-13.38897,0.93673,-80.67316,24.44456,-194.86984
6111,1.05285,-15.24807,0.52852,-43.44174,-69.97675,-185.83665
6136,0.72724,-17.36934,0.83258,-32.15024,-138.09193,-176.49828
6162,-1.03609,-17.53094,0.15862,-43.31967,-89.38592,-130.17262
6189,-2.04405,-14.83507,-0.22565,-37.09409,-49.65207,-96.29815
6214,1.5676,-8.8364,1.68372,-11.82555,-58.99043,-96.23711
6239,1.86927,-7.39748,1.12827,-5.23376,-68.08466,-94.71124
6265,1.46346,-6.9773,1.18214,-1.69372,-89.81316,-80.36798
6292,0.64823,-7.33164,1.28269,10.14709,-102.02019,-56.50325
6319,-0.58957,-6.71155,2.10151,30.22764,-92.74285,-41.30551
6346,-1.71485,-5.99568,2.01053,39.32187,-59.84493,-16.58629
6373,-3.53324,-4.9147,1.16059,39.3829,-18.7683,12.9547
6399,-3.61824,-4.2958,1.27551,52.7496,14.86205,27.60313
6425,-3.16334,-5.06912,1.50535,83.02301,50.68966,57.6324
6451,-2.73957,-8.22348,0.37409,10.20812,50.99483,120.86478
6476,20.51532,-16.67621,-13.43806,-80.67316,41.47335,-8.04138
6501,28.76693,-16.78754,-4.87878,-24.88707,46.53927,-101.79131
6527,20.64939,-8.68796,-4.26946,-6.21032,104.6447,-54.91634
6553,1.04567,-11.92013,-2.40797,14.05333,106.903,-38.4979
6579,-4.41072,-18.995,-1.30304,-43.86899,26.27562,5.50842
6605,-4.93864,-14.34306,0.38726,-52.90218,-42.08371,20.70616
6630,-1.48261,-3.60746,4.75309,33.27939,-11.62719,48.17196
6656,-0.22805,-4.92547,3.27228,54.51961,-62.59151,76.24812
6682,0.97025,-9.22187,2.09912,21.9879,-75.53095,84.12164
6709,3.08792,-12.79282,3.35248,11.79504,-10.52856,62.94246
6736,2.96103,-10.61529,5.37199,60.56208,119.23209,67.09284
6761,3.42311,-8.66402,2.64619,78.38435,112.45719,65.56697
6786,3.66373,-8.64008,0.33818,63.43074,84.19794,59.40242
6812,3.56197,-9.85753,-0.659,48.4161,62.53047,55.37411
6837,2.89519,-9.08181,-0.76076,40.84775,16.51,58.36483
6862,2.52528,-8.11814,-0.39085,41.4581,-11.87133,56.53377
6888,2.24756,-7.64888,0.07721,35.78183,-6.86645,47.98885
6913,0.46627,-9.06385,0.29868,16.98302,-4.85229,63.43074
6940,0.70569,-9.48523,1.83336,27.17588,10.04028,76.06501
6965,1.0313,-9.49959,3.09151,45.24228,35.55295,81.55817
6991,2.02609,-9.40383,0.14186,43.47226,37.75022,81.80231
7016,2.4379,-9.43734,-1.17855,24.55137,11.81029,78.20123
7041,2.85568,-9.34038,-0.91159,5.44738,7.65991,65.56697
7068,3.28784,-9.19912,-0.43395,-20.55357,-2.53296,39.32187
7094,2.58634,-9.96048,1.2372,-35.26303,-14.12963,24.49034
7120,2.46782,-10.17715,1.76393,-26.04673,-8.57543,18.87511
7147,3.07595,-10.77211,1.70288,-25.25328,17.97484,10.5133
7174,4.93026,-11.84232,0.54528,-38.13169,28.59495,-20.73668
7199,5.81013,-10.61769,0.10355,-67.12336,95.73357,-61.4471
7225,6.65049,-9.77373,-3.39558,-169.54028,184.9669,-106.49101
7252,3.38959,-8.59339,-2.58514,-160.56812,75.71405,-148.23903
7277,1.32818,-10.82598,0.06524,-70.35822,-71.6247,-164.84058
7304,0.00898,-12.75092,0.41958,-46.61557,-191.86386,-143.05104
7331,1.88603,-16.59361,3.58352,-22.26256,-199.92052,-134.44508
7357,0.79308,-16.90486,4.55557,-1.63269,-36.65158,-105.02617
7384,0.94391,-13.35905,2.27389,0.93079,-20.29417,-91.41534
7409,1.81181,-8.39228,-0.76794,7.64465,-108.91715,-86.28839
7435,1.77949,-8.75619,0.42078,25.77208,-180.93858,-76.5838
7461,1.55563,-9.94492,2.14461,47.1954,-178.06993,-60.04329
7486,0.1658,-9.17039,4.09229,66.23836,-155.30385,-47.28695
7512,-0.42796,-7.45255,3.27946,86.44098,-128.32632,-28.06089
7538,-1.40719,-6.40868,1.64063,89.37066,-133.20912,0.86975
7565,-1.68253,-6.23031,0.93553,99.68559,-131.07291,35.35459
7592,0.23643,-7.38432,0.03891,119.3389,-147.73549,62.27107
7618,2.40198,-9.06744,-1.17735,118.48441,-214.69099,65.56697
7645,6.61937,-10.65121,-5.89273,57.75447,-248.99274,37.55185
7671,8.55029,-8.20313,-1.29706,21.43858,-206.32919,-16.46422
7698,4.77105,-9.22546,-0.19692,22.96446,-264.19049,-30.86851
7725,1.96265,-11.59452,0.50338,25.03965,-269.74466,-28.85435
7751,-1.06003,-14.46038,5.88076,41.88535,-203.39951,-20.2484
7776,-2.70246,-13.42848,7.6812,75.39362,-121.06313,4.71496
7801,-2.01412,-10.83676,7.49206,95.04693,-72.11298,10.39123
7827,-1.81301,-8.52156,1.55324,80.27643,-122.58901,28.21348
7853,-0.90441,-8.96808,0.28671,58.36483,-188.56798,58.30379
7878,0.86251,-8.87231,0.167,57.75447,-246.73444,63.73592
7904,2.12545,-9.42298,0.93793,89.7979,-259.42975,49.57577
7929,2.2703,-10.63205,4.28981,155.04443,-150.66518,41.33603
7956,2.23678,-10.33517,0.66499,124.77103,-89.08074,40.05429
7982,2.55282,-9.53192,-2.31699,52.87167,-77.42303,28.21348
8007,2.5588,-9.2075,-3.67091,-9.68932,-121.18522,6.60705
8033,1.81899,-10.84154,-0.75238,-17.25768,-114.89859,-11.88659
8059,0.96307,-11.79922,1.03609,-5.23376,-80.04755,-14.32799
8085,-0.40282,-10.12328,0.32262,-15.18248,-62.16426,2.5177
8110,0.80266,-9.19194,0.51176,-26.59605,-64.36152,9.17053
8136,1.53289,-9.07702,1.52331,-23.97154,-60.21114,12.03918
8162,1.73999,-9.24222,2.34332,-13.10729,-63.50703,19.9127
8188,1.82259,-9.16201,2.59112,2.21252,-93.47527,32.97422
8215,2.20087,-9.08061,2.69767,14.23644,-109.16129,42.86191
8241,2.78146,-9.19673,2.99814,26.87071,-103.30193,46.21884
8267,3.65295,-9.27693,1.97821,26.32139,-85.05242,47.07333
8292,3.88639,-9.25898,0.99659,13.68712,-90.54559,42.55673
8318,3.86005,-9.32961,0.35135,3.18908,-105.13297,34.98838
8345,4.14496,-9.4158,-0.2484,-2.91443,-110.87028,18.75304
8372,3.19087,-9.89823,-2.61028,-52.04769,-107.20818,13.56505
8399,2.3517,-10.2406,-4.07792,-81.1004,-153.96107,16.49474
8425,3.46261,-11.67712,0.22087,-71.94514,-180.08409,15.15197
8453,3.69006,-12.17272,0.95708,-57.11361,-161.77356,-10.11657
8479,3.06637,-11.77049,1.96384,-56.9305,-113.861,-31.17368
8505,1.42395,-10.22504,-0.0425,-72.37238,-84.62518,-50.09457
8530,1.53887,-10.68592,0.06883,-82.50421,-40.19162,-79.51349
8556,1.36769,-12.47559,0.56683,-67.91682,0.64087,-95.19951
8582,0.81104,-12.76289,-0.19932,-40.87827,5.76782,-102.46269
8609,0.44592,-11.33236,0.39804,-2.60925,-31.82981,-104.72099
8635,0.77273,-10.42615,0.38966,21.31651,-97.99187,-105.94169
8661,3.07834,-9.00399,0.40282,15.213,-109.5275,-116.19559
8687,3.76548,-8.34918,0.34417,2.21252,-95.36736,-128.52467
8713,3.49134,-8.37552,0.81702,10.87951,-92.31561,-133.10231
8740,1.40719,-8.68556,-0.06165,26.74864,-114.47134,-127.6702
8767,0.73322,-9.04948,-0.13946,29.31211,-137.66469,-110.27518
8793,0.70928,-8.84119,0.3322,29.9835,-128.93668,-95.07745
8820,-0.42437,-8.43298,0.49141,36.33115,-108.1237,-78.53693
8846,-0.71646,-7.54952,-0.3322,44.69296,-72.90643,-54.91634
8871,-0.79787,-6.19919,-1.38086,51.8951,-61.85909,-30.38023
8898,-0.48423,-5.85801,-2.0644,50.73544,-32.07395,0.74768
8924,3.83491,-8.01399,-5.28221,34.74424,0.39673,15.76232
8951,6.69239,-10.17476,-7.57585,6.91223,-3.87573,2.15149
8978,11.32038,-11.99555,-8.75619,-17.01354,-24.38353,-41.00034
9003,10.49678,-7.41544,-3.24594,0.99182,-29.81565,-39.59653
9029,6.88153,-5.26784,-2.89998,14.35851,-52.1545,-23.97154
9055,4.55437,-7.00244,0.9511,22.78135,-11.07787,-12.68004
9081,-1.27551,-16.57685,-6.03159,-69.01545,-2.22778,22.41514
9107,-2.38043,-11.6017,-8.35157,-46.73764,29.2053,21.62169
9133,-2.1877,-5.87597,1.21925,125.74758,84.86932,79.78815
9161,1.11031,-8.95372,4.6669,89.12653,34.51535,88.3941
9186,2.98377,-8.59099,1.1977,7.76672,-46.17306,56.53377
9212,4.93026,-10.39742,2.53366,-11.09313,117.34,51.28475
9238,4.68366,-12.00513,5.14933,66.84871,246.18512,87.23443
9264,5.21038,-10.5303,0.95229,92.11724,184.47862,70.02253
9290,3.99413,-9.93893,-2.14341,67.45905,104.52262,55.67928
9316,1.65379,-9.73183,-3.11067,44.63193,28.59495,75.8819
9342,2.05841,-8.75141,0.35853,50.49129,-13.2141,84.24371
9368,2.47022,-8.12173,0.61232,49.75887,-31.03635,76.98054
9395,2.29185,-7.73267,0.28551,40.78671,-54.16866,66.29939
9421,2.23918,-8.16483,1.09834,28.33555,-36.52951,56.47274
9448,1.86329,-8.60536,1.79745,20.7672,4.42505,59.15828
9473,2.0656,-8.70352,2.53486,23.87999,53.86349,54.1534
9500,1.91357,-9.28172,2.38881,31.93662,95.18425,52.01717
9525,1.62985,-9.43974,1.38564,32.36387,102.69157,56.53377
9552,1.42874,-9.8288,0.36811,22.171,69.00019,62.45418
9578,1.90159,-11.57537,-0.18256,22.35411,34.14915,62.39314
9605,2.96701,-11.4796,-0.86969,5.32531,10.28442,53.05477
9632,3.04363,-10.18793,-1.5257,-33.85923,-46.47823,53.17684
9657,4.24791,-10.82838,2.16017,-26.84019,-48.85861,53.90926
9683,5.74908,-11.75613,3.54761,-13.10729,8.63647,24.91758
9711,6.97491,-11.51192,2.84371,-16.28111,40.74094,-16.15905
9737,6.76661,-8.12293,-3.38959,-74.20344,186.55382,-83.05353
9764,4.67288,-9.03871,-7.55909,-166.54956,182.34239,-138.35135
9791,4.32572,-10.58058,-3.64457,-119.43045,4.11987,-183.57835
9817,0.71886,-15.33426,0.40402,-68.40511,-98.35808,-176.55931
9843,1.18214,-16.85817,0.32382,-58.51741,-158.11145,-168.80785
9869,1.84773,-19.06084,1.93392,-12.55797,-167.26671,-161.36159
9894,-2.4343,-15.04935,1.30185,-3.40271,-39.6423,-100.5706
9920,0.2903,-9.79408,-1.09355,-29.4647,-21.14867,-88.42462
9947,1.54965,-7.21672,0.02813,-18.90563,-74.49335,-95.6878
9975,1.60352,-5.23911,1.35811,0.07629,-111.23649,-97.33574
10002,0.8266,-6.01364,1.47902,4.59289,-133.33119,-80.24591
10028,0.07123,-6.81091,2.23798,9.71984,-128.99771,-59.92122
10055,-1.32579,-6.56909,2.80181,20.70616,-93.65837,-39.29135
10080,-2.45825,-6.07589,1.49817,27.60313,-85.66278,-18.35631
10107,-3.07236,-5.53001,0.98222,42.37363,-58.38008,-7.12585
10133,-4.07792,-5.27742,1.54845,68.55769,20.59935,20.46202
10159,-2.19249,-7.72788,0.12869,86.80719,92.55975,62.94246
10185,2.45585,-11.11329,-2.70365,50.12508,176.36095,72.46394
10212,10.61769,-14.9464,-12.77007,-104.47684,129.30289,-20.30943
10239,25.80171,-12.94126,-7.06589,-22.75084,-8.08715,-87.26495
10266,13.5829,-6.86477,-4.83928,19.85167,-15.59447,-61.08089
10291,-1.56162,-7.74345,0.11313,12.40539,-57.83077,16.18956
10315,-1.58317,-14.19223,9.62529,18.56993,11.81029,43.77743
10340,-1.25636,-14.98351,4.06835,-31.90611,33.59983,25.89415
10367,-5.70478,-12.1416,-10.63445,-8.16345,99.0905,-2.85339
10393,-0.46148,-6.41586,2.03806,83.14508,43.9758,17.89855
10419,-2.05722,-8.93815,0.56922,34.86631,-49.46896,70.93806
10446,-1.09355,-11.50115,2.4343,-7.7362,-22.18626,102.85942
10473,2.95026,-11.43172,6.36678,47.62264,39.52023,99.38042
10498,4.20721,-10.82957,5.21517,106.58256,105.01091,91.81207
10525,4.84167,-10.39024,1.73041,98.22075,102.3864,78.93365
10552,3.60387,-8.74303,-0.36811,59.40242,89.32488,71.67048
10577,2.95145,-7.75901,-0.082,47.86679,63.81221,72.2198
10604,2.71323,-7.25144,0.00778,44.14364,32.25706,67.58113
10631,2.04046,-8.41502,-0.18615,34.19492,23.22386,55.0079
10658,0.95708,-8.90463,0.04609,21.13341,9.91821,57.87654
10684,0.2879,-9.10814,1.21566,19.36339,8.02612,70.69392
10710,1.14622,-9.67198,2.62105,30.59385,34.51535,73.68463
10737,1.52451,-10.01674,1.21566,35.35459,55.6335,70.38874
10762,1.34614,-10.45847,-0.4112,21.92686,19.31761,78.07916
10788,1.29347,-10.62726,-0.61711,10.87951,3.20434,83.81647
10814,3.4255,-9.07582,-0.39804,-12.37487,-5.82885,67.58113
10840,2.86406,-8.67719,-0.13827,-42.09897,-52.45968,58.91414
10867,2.4367,-9.60374,0.86969,-37.4603,-57.95284,57.87654
10894,5.87118,-11.82796,5.85682,-5.35583,12.78686,18.26476
10918,6.70077,-11.44249,4.0037,4.40979,79.68134,-39.9017
10942,5.92625,-9.1237,0.11432,-48.81283,170.1964,-78.35383
10967,5.09546,-8.58621,-7.32087,-151.53491,193.1456,-141.52516
10993,3.43628,-12.46601,-2.50493,-104.23271,41.65646,-194.0764
11018,1.07919,-14.99668,-2.03926,-70.78547,-84.80829,-201.03439
11044,-0.0401,-16.12435,-1.45986,-77.31622,-159.9425,-188.15599
11070,0.91997,-20.28308,3.68049,-50.76595,-147.97963,-184.79906
11097,-2.20686,-19.93113,6.03518,5.44738,-23.77317,-133.52957
11123,-3.46142,-14.60523,-0.32501,-25.86363,14.37377,-86.34943
11148,0.91638,-6.75584,-0.49021,-19.88219,-72.47919,-88.42462
11176,1.75435,-5.28221,0.9918,-3.15857,-108.36784,-93.55157
11202,1.46944,-5.17088,1.76273,1.23596,-105.31608,-87.63116
11228,-0.9511,-6.5667,2.26073,-3.2196,-102.20329,-58.21223
11255,-1.21326,-5.88315,2.99215,7.76672,-63.87325,-40.32895
11280,-2.18411,-4.94822,1.85251,18.5089,-42.14474,-23.84947
11307,-3.3022,-4.61303,0.63027,21.49962,-17.48656,0.19836
11332,-4.34248,-5.73232,1.04567,36.33115,38.11643,42.31259
11358,-3.11905,-6.57508,0.2077,55.80135,60.69942,81.13092
11383,-0.25199,-8.66521,-1.95307,42.80087,79.19306,99.25835
11409,24.76023,-15.41567,-13.05618,-54.79427,142.48647,-7.06481
11435,30.31957,-17.49144,-10.8176,-72.9217,70.77021,-107.46757
11461,18.88606,-12.14279,-7.82365,14.1754,-31.28049,-54.18392
11488,-1.58317,-6.97611,0.71527,21.01134,7.96508,-0.53406
11514,-5.35284,-12.63001,4.15214,-16.34215,72.90643,51.8951
11541,-4.46219,-13.82592,1.62028,-40.51205,-6.68334,45.73056
11567,1.38564,-8.67,3.59669,27.66416,-21.82005,28.45762
11593,2.55042,-8.67,3.2639,42.19052,6.98852,37.73496
11621,-0.35494,-9.95329,3.1789,30.47178,-5.34057,91.01861
11647,2.15658,-10.4884,3.39199,29.9835,1.61743,75.0274
11674,1.31502,-10.12807,4.16172,52.13924,48.79757,83.93854
11700,2.28826,-9.15962,3.0544,73.37946,64.05635,71.3653
11726,3.10109,-9.86351,1.05046,67.39802,76.38544,61.35555
11752,2.79343,-9.60614,0.78949,55.74031,91.15594,61.84383
11779,2.70246,-8.7957,0.21608,44.81503,67.23017,61.1114
11805,2.16615,-8.00681,-0.06285,37.06357,24.99388,67.15388
11832,1.92913,-8.51677,0.90082,8.92638,74.49335,70.08356
11857,2.86766,-8.64845,1.6514,-1.08337,122.28384,46.52401
11884,2.09193,-8.67958,1.77949,13.68712,92.98699,58.24275
11910,1.02292,-9.36073,-0.00658,50.12508,-11.93236,59.28035
11937,-0.01736,-10.05385,-1.31861,14.48058,-34.88157,78.68951
11964,0.94032,-9.65881,-0.01257,-7.18688,9.24682,75.21051
11990,1.39522,-9.9928,2.05243,0.68664,58.68526,67.58113
12017,1.3222,-10.62966,0.87089,-1.44958,54.2297,58.91414
12044,1.45986,-10.19272,0.04968,-15.97594,-9.00268,48.72128
12071,1.35332,-10.28848,0.4531,-17.31871,-59.41768,67.03181
12098,3.05321,-10.49678,1.44909,-12.98522,-62.83564,51.8951
12125,4.70042,-12.04702,2.93828,-8.9569,-21.0266,23.08653
12151,6.11778,-10.69669,2.0656,-11.27624,11.87133,-18.60045
12176,6.32249,-8.53712,0.64584,-39.7186,106.96404,-75.48518
12201,5.13496,-8.15166,-4.48015,-154.0984,183.44102,-119.18631
12229,2.8485,-12.54502,-4.34248,-155.92944,15.16723,-167.95337
12256,1.58795,-14.55136,-2.23678,-115.95145,-115.93619,-174.85033
12282,3.09271,-14.99788,1.3617,-82.93145,-223.60213,-168.74681
12309,4.461,-16.04295,5.22475,-29.4647,-196.31943,-209.02998
12335,1.55563,-17.40285,8.34679,27.11485,-49.77413,-190.41428
12361,-5.779,-14.87817,4.20961,-12.86315,-28.10667,-45.02865
12387,0.36691,-7.67042,-2.2284,-17.56285,-37.26194,-105.02617
12413,1.16418,-8.82563,1.12468,8.98742,-59.60078,-116.50076
12439,-0.6183,-8.98245,2.42832,37.00254,-62.53047,-84.76251
12465,-0.05447,-5.58867,-0.64584,27.23692,-99.945,-64.9261
12491,-0.96307,-5.70119,0.86491,25.65001,-86.88348,-34.59165
12517,-1.61908,-6.15968,1.97821,45.24228,-72.11298,-13.65661
12543,-2.63661,-6.08905,0.71168,64.2242,-60.88252,10.02502
12568,-2.78146,-6.10342,1.00018,85.76958,-16.6931,36.20908
12594,-1.75794,-6.94378,1.07081,97.48833,50.50655,55.37411
12621,0.4124,-8.33482,-1.97701,69.47321,39.27609,79.97125
12648,9.54628,-13.25849,-15.60361,-50.88802,-43.91476,48.233
12674,25.62095,-13.81754,-10.50995,-28.73228,-33.96604,-130.05055
12701,25.89988,-13.15315,-3.3022,-19.51598,58.80733,-109.05448
12728,1.10193,-11.60051,-1.60591,-2.05993,104.03435,-51.07113
12754,-4.19165,-16.75283,-4.19165,-70.35822,58.62423,-6.82067
12780,-4.58789,-14.36461,1.67534,-22.93394,-48.06515,3.7384
12806,-1.5293,-4.93984,-4.8309,-7.7362,-16.63207,46.89022
12833,1.40719,-7.64169,0.12869,5.63049,-42.9382,104.26323
12860,3.6733,-10.01435,6.01483,14.66368,-17.91381,89.85894
12885,3.14897,-8.63409,4.56634,70.32771,55.08419,40.60361
12910,2.24995,-8.4665,0.10714,76.30915,62.34737,44.69296
12936,2.26791,-8.61853,-2.28586,44.14364,22.30833,81.25299
12962,2.39121,-8.38629,-1.03489,35.17148,-22.91868,74.53913
12989,1.56401,-9.45051,2.21524,55.0079,-3.87573,68.55769
13015,0.91638,-9.82281,3.9654,70.69392,50.9338,78.07916
13041,1.6119,-7.45495,1.08278,83.81647,59.47871,64.71248
13068,0.81942,-7.68359,0.38008,102.43217,57.15938,47.86679
13094,-0.19213,-8.27376,-0.67816,82.53473,-24.81077,68.9239
13120,1.24678,-9.2099,1.21446,65.50594,-62.16426,84.06061
13146,2.93828,-10.21546,2.2308,70.87702,-28.53391,39.68808
13172,2.87484,-10.6105,2.11228,71.91462,11.26098,14.84679
13199,1.92195,-9.65163,0.7847,51.65096,49.46896,32.11972
13224,2.28108,-10.10652,1.38684,30.89902,84.93036,48.11093
13251,2.6833,-10.20708,1.46226,17.2882,95.55047,48.4161
13278,2.81498,-10.25018,-0.63865,-14.81627,52.1545,38.52842
13303,2.59591,-9.73423,0.04369,-41.36655,1.61743,20.03477
13330,2.42353,-10.52072,1.25277,-45.39486,-11.93236,6.60705
13358,3.27946,-10.73021,0.02693,-61.4471,-9.79614,-14.08385
13385,4.0037,-10.9409,-1.72921,-96.84747,-34.51535,-40.81723
13413,4.19165,-10.81042,-2.49416,-151.84009,-65.58223,-77.37726
13438,4.50409,-11.80162,-4.1713,-202.07199,-100.73846,-106.97929
13465,3.04842,-12.54741,-2.09433,-215.01143,-34.82053,-123.21463
13490,1.09834,-13.55777,-0.10355,-179.55003,-48.85861,-124.80154
13517,2.18172,-16.75283,4.96258,-118.51493,-9.30785,-144.0276
13543,1.99018,-17.27357,7.54952,-2.91443,10.10131,-155.62428
13570,-0.56324,-14.90331,3.8409,53.60409,5.95092,-116.31766
13596,0.08679,-8.63409,-10.00836,-23.84947,-94.45183,-67.48957
13623,1.46465,-9.22546,-2.1039,-50.27767,-108.97819,-73.53205
13649,1.42515,-8.69993,2.52169,-15.12145,-126.92251,-59.00569
13676,2.45466,-5.96455,4.03363,7.52258,-15.53344,-55.64876
13703,1.51852,-5.21996,0.97863,14.11437,2.83813,-56.99154
13729,-0.56802,-5.68324,-1.80463,16.31163,-50.20138,-39.04721
13757,-2.02609,-6.1513,1.24798,29.92246,-41.59543,-4.98962
13784,-1.76513,-6.15968,1.18453,47.62264,-16.93724,23.26964
13809,-0.94272,-6.84921,0.97983,85.34235,-16.81517,45.48642
13835,-0.25798,-8.36474,-0.20051,105.66704,-55.26729,70.26667
13860,4.048,-9.91738,-7.94456,44.9371,-66.49775,65.2618
13887,12.54023,-11.40179,-17.87212,-134.56715,48.4924,-40.81723
13913,16.5589,-12.35588,-10.53748,-61.26399,128.38736,-84.76251
13939,8.44016,-9.64085,-4.85005,36.08701,39.70334,-96.054
13965,-1.04327,-11.07498,-3.67809,46.76815,0.82397,-34.10337
13990,-4.27425,-12.45763,-1.67295,19.42443,63.20186,12.9547
14014,-1.072,-9.34996,1.7328,9.96398,34.9426,46.03573
14039,-0.18974,-8.63409,-7.87393,-99.71611,-31.34153,66.23836
14066,5.58867,-8.8364,-6.09145,-77.31622,91.27801,28.09141
14093,3.00891,-9.083,7.17842,73.68463,73.45576,40.72568
14118,2.35649,-8.73584,3.91512,118.78958,45.56271,32.66904
14144,2.47141,-7.75183,2.30621,102.06596,59.29561,19.30235
14171,2.30981,-8.03913,-0.34776,52.38338,33.41673,18.692
14196,2.23319,-10.6117,0.58239,34.6832,-13.76342,38.10117
14222,3.03525,-10.74218,1.57239,45.91366,-29.32737,49.14852
14247,3.70323,-10.24658,2.1051,63.06453,-6.68334,47.98885
14273,3.96659,-9.54748,2.32776,76.18708,27.9846,41.27499
14301,4.07314,-8.38749,1.08517,73.01325,48.98067,33.88975
14328,3.81097,-7.98167,1.24678,59.03621,80.41376,22.04893
14354,2.41515,-8.54311,0.06524,35.17148,83.77069,21.31651
14380,2.42832,-9.23503,0.35973,24.79552,65.39912,24.06309
14406,2.30143,-9.43615,1.15341,26.6876,62.16426,27.9083
14432,1.96265,-9.44094,1.37966,25.58897,60.39424,35.53769
14457,2.2727,-9.57381,1.3617,34.98838,54.90108,44.63193
14483,2.71083,-9.05427,0.31544,32.36387,39.82541,43.16708
14509,2.81498,-8.93815,-0.43754,18.63097,42.87716,32.4249
14535,1.88603,-9.58698,0.2472,0.01526,61.61494,26.99278
14561,1.75315,-9.8683,1.01813,-14.32799,55.02316,31.50938
14587,1.63464,-9.9497,1.58317,-20.37047,50.9338,37.73496
14615,2.19728,-10.87387,3.26629,-30.25815,81.81757,27.96934
14641,2.54563,-11.09413,3.40396,-36.60581,109.40543,12.83263
14668,3.7152,-10.93731,0.94272,-52.53597,58.13594,-15.79284
14693,5.06912,-10.58776,-0.61471,-73.59308,35.79709,-55.7098
14720,3.96061,-11.15518,-1.02053,-108.13895,49.34689,-87.75323
14746,2.27748,-11.55502,-1.7759,-158.67603,74.18818,-98.06816
14772,-2.34332,-12.45284,-1.00137,-184.92113,131.25601,-80.9173
14798,-3.58592,-13.44404,-0.97743,-165.38989,121.8566,-63.64436
14825,-3.2627,-13.80916,-0.31903,-84.82355,6.19506,-72.49445
14851,-1.96384,-12.04224,1.6526,-30.74644,-68.63398,-80.73419
14877,-1.68013,-11.52269,1.04686,-27.26744,-51.17794,-72.18928
14903,-1.08517,-10.96006,-0.75956,-43.01449,-34.9426,-55.46566
14929,-0.5788,-9.86351,-1.64781,-51.13216,-0.82397,-35.87339
14956,-0.01377,-8.22588,0.69611,-38.07065,36.22434,-12.06969
14982,-0.01975,-7.21912,1.65858,-37.58237,85.96795,11.24572
15008,0.98462,-6.80253,1.54007,-30.25815,92.92596,11.36779
