timestamp,ax,ay,az,wx,wy,wz
23,-1.92314,2.4379,8.63768,2.3117,-36.39981,-73.15821
47,-1.99497,2.30741,9.26137,-3.97491,-35.24015,-72.42579
71,-1.69689,2.09433,9.38826,-4.46319,-36.52188,-73.70753
94,-2.03806,2.11588,9.04948,-8.36944,-36.27774,-72.85303
118,-1.79625,2.44867,9.05786,-7.94219,-30.41837,-81.8252
141,-1.43113,2.53486,9.30566,-5.98907,-26.39006,-94.09325
166,-2.09074,1.49697,8.13729,-18.31816,-47.14199,-88.11181
191,-2.26551,1.40839,7.39629,-37.72733,-65.5746,-83.229
216,-1.42036,1.38205,7.46931,-55.36648,-126.06039,-84.4497
240,-1.01813,0.91399,7.07546,-63.72829,-161.21661,-86.21973
265,0.9918,1.16059,8.00561,-85.63989,-188.07205,-93.97118
289,2.08236,0.92835,9.33679,-85.09057,-173.85088,-101.23436
315,2.14461,0.87927,12.67311,-27.22929,-138.93881,-103.30956
340,3.17172,-1.92195,8.76218,8.11004,-109.58091,-84.51074
363,4.19644,-2.67971,6.59303,-24.60478,-69.2367,-62.41603
385,2.79343,-2.9299,5.79816,-31.68485,-139.85432,-33.30228
407,4.55437,-0.03292,8.97167,-3.85284,-163.59698,-17.37212
431,5.34446,-0.20171,9.07702,15.00701,-195.45731,-7.6065
455,5.64014,-1.47782,7.24426,-13.92363,-199.11943,-4.00543
478,6.6074,-2.73238,6.27939,-58.84547,-176.10919,-4.61578
503,6.29855,-3.56556,6.66127,-88.02026,-130.33286,-6.5689
528,6.47572,-3.42072,5.84006,-103.40111,-134.66635,-6.08062
552,6.17524,-2.9742,5.73471,-85.57886,-197.77666,18.27239
576,6.02441,-3.90794,5.31692,-58.05202,-269.12668,49.40029
600,7.65127,-6.43621,5.63056,-29.73173,-328.9411,49.33926
624,8.58501,-6.47213,6.68282,-21.12578,-294.3342,32.61564
648,6.69359,-6.6876,5.42466,-17.89092,-287.07101,75.76746
674,6.94857,-6.48529,5.31812,-7.57598,-268.15015,108.54332
699,9.51994,-4.76745,5.47853,-9.04083,-232.20045,121.60483
728,11.06181,-4.1713,6.27101,-1.04523,-185.6917,128.37973
752,12.48516,-2.86885,7.56149,40.39761,-155.84552,115.44028
778,12.01351,-1.58795,2.82576,53.7643,-108.36021,123.49693
803,12.64797,-0.99778,0.51415,37.16275,-84.25134,128.68491
827,15.5677,0.12031,-0.44472,45.03628,-85.04479,75.52332
851,17.47707,1.7735,1.67295,54.74086,-40.48917,21.56828
877,15.80712,1.41916,-1.6083,36.24723,-27.18351,-7.24029
903,12.02548,-0.85892,-5.45938,12.13836,-28.52629,-25.18461
928,12.27926,-0.67935,-4.38797,9.45281,-17.53996,-49.29348
953,11.19349,-1.47782,-5.03441,-2.69317,-5.0888,-57.77736
976,8.70352,-4.04081,-9.21229,-64.88795,43.61721,-40.01614
1000,8.18159,-4.11743,-8.15764,-123.05441,85.24316,-28.17533
1027,9.22306,-3.87202,-1.83695,-71.0525,57.41115,-27.50395
1051,10.50276,-3.12503,-1.33896,-17.89092,-3.68499,-55.88527
1074,10.51474,-2.57796,-1.14982,26.2985,-58.43349,-65.10157
1098,7.61536,-3.94145,2.65697,72.56312,-77.0492,-57.65529
1123,7.04673,-3.15496,-0.08918,40.0314,2.47955,-38.91751
1147,7.41065,-3.1777,0.53211,29.71647,45.93655,-26.58842
1173,6.35242,-3.77865,1.38325,46.8063,45.02102,-19.02007
1199,7.90027,-3.06039,0.04729,53.82534,31.34916,-24.94047
1226,8.36235,-2.13742,-0.51775,23.24675,47.88968,-20.97319
1252,9.11532,-2.48937,1.41677,1.57928,97.32811,-19.81352
1278,9.46967,-2.95145,-0.13467,3.1662,76.39307,-21.27836
1302,8.45812,-3.13221,-2.90955,-20.88164,43.18997,4.53949
1327,8.93576,-3.52008,-2.17094,-28.02275,50.02591,39.45157
1352,11.11448,-2.88801,-0.80385,-5.80596,34.21781,34.56876
1376,9.71747,-3.47818,-0.8673,12.62664,14.07622,40.06192
1397,9.72345,-4.24432,-0.51176,11.89422,7.36236,55.5038
1419,10.08617,-4.73154,0.58718,7.74383,31.83744,66.61219
1442,10.42136,-4.57233,0.09038,1.82342,40.68753,66.91737
1474,9.51994,-3.0161,-0.42916,-2.87628,23.90288,44.39541
1497,7.17842,-2.27629,0.00299,-8.49151,28.23637,56.96865
1522,7.17722,-0.91638,0.65541,-22.59062,46.30276,45.73819
1543,8.22468,-0.61711,1.38325,-24.17753,68.39748,35.66739
1566,8.21391,-0.56683,-1.12587,-39.13113,73.40235,26.51213
1588,7.79133,-0.93553,-3.41114,-43.15945,35.92679,12.35198
1609,10.14004,-1.55683,-2.14221,-16.36504,1.44195,3.37982
1633,10.20349,-5.00568,-0.61591,17.44841,-33.22599,2.28119
1654,11.28327,-5.5743,-1.09834,5.11932,-40.85538,13.51165
1676,13.6691,-6.25066,0.23523,-7.0877,-30.41837,0.26703
1696,12.76409,-7.07666,-0.1239,-32.47831,-23.82658,-12.36724
1719,9.96886,-5.74788,-0.75597,-53.04714,-42.62539,7.89642
1741,9.38348,-5.27263,-0.70569,-62.0193,-60.56971,24.00969
1762,6.51642,-6.02202,0.14664,-64.88795,-67.58876,55.80898
1784,8.76697,-5.4486,0.27114,-58.7234,-82.29822,36.0336
1806,9.2099,-5.98251,1.60711,-45.05154,-79.3075,29.19767
1828,8.70472,-8.17201,0.85892,-33.94315,-80.46716,15.64788
1849,11.01512,-8.27616,1.40001,-27.29032,-63.3163,0.99945
1871,10.58536,-8.5455,0.53331,-29.24345,-35.91153,2.03705
1893,8.78612,-8.9597,0.17777,-34.3704,-28.52629,13.38958
1915,9.35953,-7.51959,0.48782,-33.82108,-23.76555,12.59612
1938,10.94809,-6.01483,2.79224,22.27019,-30.72355,-20.91215
1962,9.61571,-2.57437,1.61788,7.31658,-38.1088,-54.60354
1986,8.92139,0.14305,-3.87801,-10.07842,-13.02337,-82.74072
2008,8.85436,1.27312,0.08918,-22.10234,16.15142,-108.68065
2030,4.94702,1.08876,-1.60232,-13.43535,21.64458,-121.74215
2052,4.65493,0.99539,-2.81259,14.76287,-32.92081,-142.12788
2074,4.41072,-1.25157,-2.01412,45.03628,-58.49453,-129.9819
2096,6.72711,-0.58718,-2.39959,49.73598,-61.97352,-107.45994
2118,7.16166,-1.45747,-2.36846,54.13051,-92.43005,-87.50146
2140,7.57226,-1.95786,-1.11869,77.20178,-132.59114,-76.88136
2162,6.01603,-5.23313,-0.28192,93.98644,-138.14534,-41.48099
2187,7.31608,-6.01842,-0.41599,78.42249,-91.63659,3.56292
2212,3.41114,-8.56705,-3.59908,33.0734,-30.47941,87.97448
2237,8.60057,-6.82886,-4.51127,23.36882,-20.83586,102.13463
2263,10.75176,-5.864,-7.37354,-13.92363,-5.76019,97.61803
2288,11.00794,-4.78781,-6.89949,-59.08962,19.81352,100.05944
2314,10.31003,-3.5524,-0.9511,-47.43191,25.12358,119.95688
2338,13.75768,-2.39719,-0.78709,-25.27617,33.48539,85.83825
2363,12.10449,-2.13503,-3.5919,-39.37527,21.58354,72.34949
2389,12.25412,-4.85484,-5.34087,-50.48367,50.81936,48.97305
2419,8.60656,-7.20355,-3.18249,-14.22881,28.90775,47.75235
2443,6.53677,-6.92702,-3.61225,11.65008,2.9068,73.93641
2467,5.42945,-4.59627,-2.01771,48.21011,21.58354,104.20982
2493,3.49972,-3.28305,2.48339,93.74229,66.44434,148.76546
2521,4.11384,-4.27904,0.19094,102.89757,26.0391,142.47884
2546,3.71161,-5.75387,0.2903,135.49031,-33.34806,145.0423
2571,6.70915,-5.70119,0.50338,154.53328,-66.06288,74.66883
2597,5.42107,-6.65409,2.8485,203.11722,-3.8681,51.59756
2622,2.66774,-10.51354,-0.21847,155.20465,6.75201,128.3187
2644,4.24312,-10.08258,-0.33459,125.60263,29.1519,132.59114
2667,2.88082,-14.50826,-0.67935,80.74182,64.12502,182.63994
2690,4.22756,-12.68747,0.16939,48.39321,115.15037,210.16678
2713,4.01328,-12.22898,0.84695,48.82046,150.4897,233.8484
2740,4.89914,-10.15321,1.54366,34.53825,179.23724,237.26637
2766,6.35242,-8.69035,1.09954,29.5944,129.49361,157.67659
2792,4.9973,-9.39784,0.22206,21.5988,26.16117,53.30654
2820,2.77548,-10.75176,0.51296,17.87566,-78.94128,-2.66266
2845,0.11313,-11.13004,2.19129,37.89517,-93.34557,17.66203
2869,0.34895,-9.51755,0.36452,59.1354,-118.00376,30.41837
2896,1.04806,-8.52037,-3.05081,27.94645,-133.93391,-4.06646
2921,-1.03968,-10.05864,-7.35439,-58.47927,-3.07464,37.13224
2946,0.41958,-11.37306,0.44113,-65.6814,129.73776,55.80898
2972,0.94032,-10.84633,0.14305,-51.52126,132.85056,48.60684
2998,2.16137,-8.95491,-0.15502,-41.45047,53.68801,26.51213
3024,2.1051,-8.42579,-1.79146,-70.07594,2.66266,-20.24077
3049,1.82139,-11.78486,-4.54479,-150.45918,4.37164,-88.66113
3076,-0.20411,-14.69262,-4.43466,-223.64027,-4.17328,-116.249
3102,-2.19488,-15.56411,-0.64105,-211.49429,32.87503,-99.58641
3131,-2.29185,-16.61396,6.39671,-124.88546,154.39595,-77.91895
3156,-2.20326,-17.00901,3.61465,-29.67069,141.02925,-31.5933
3182,-0.39923,-13.40813,-5.23672,-77.58326,-17.05168,-16.94487
3209,3.14299,-8.70592,-2.77069,-112.67844,-69.96912,-18.0435
3234,3.79541,-6.88393,1.734,-67.63454,-65.87977,-40.50443
3260,4.19763,-5.57191,2.35889,-29.30448,-67.34461,-87.56249
3287,1.20728,-6.74267,1.05764,-26.92411,-68.87049,-79.20069
3312,-0.43874,-6.71035,0.73801,-31.37967,-73.08192,-51.79592
3335,0.6183,-4.5831,0.42318,-23.81132,-57.21279,-58.81496
3361,-0.14545,-4.82013,1.18333,19.40154,-42.8085,-50.14797
3388,-1.36888,-5.38875,-0.45909,59.56264,-50.62099,-36.35404
3415,-1.2815,-4.84287,-1.25157,93.68126,-58.06728,-1.01471
3444,-0.64464,-7.28017,-2.20446,115.83701,-73.63123,16.3803
3469,1.67055,-12.17033,-8.8352,83.91565,-45.2499,35.78946
3497,4.06954,-14.02583,-15.37018,-18.98955,27.32084,34.01944
3522,8.23665,-13.74451,-17.35497,-82.5271,72.36475,-25.00151
3549,2.92152,-10.65599,-9.70549,-53.65749,-34.87394,-61.37844
3576,-1.88005,-8.41023,-2.9311,-35.95731,-83.09167,-22.74321
3603,-5.41868,-9.50438,0.81582,7.74383,-2.03705,16.62444
3629,0.3717,-7.88949,6.07948,80.37561,85.85351,20.34758
3655,0.02215,-10.32799,-21.18809,-89.11889,-135.27669,36.58292
3681,5.14813,-10.60212,5.19961,50.16323,102.27196,-5.65338
3707,2.11468,-9.96646,3.29263,76.40833,107.52097,-28.35844
3733,-0.21009,-11.77887,-1.1139,65.72718,17.43315,10.45989
3760,-0.22565,-12.24574,-2.30382,66.33754,20.54594,35.97257
3787,1.34614,-12.07935,0.36811,77.07972,80.72656,58.12831
3813,0.72245,-12.11286,0.89004,75.98108,132.78952,96.45837
3839,0.93434,-11.63642,0.52732,68.59583,103.61473,129.23421
3866,-0.58119,-11.96203,1.63464,68.59583,70.89991,174.52228
3893,0.20411,-10.82718,1.95068,87.8219,77.24756,196.12871
3919,1.51972,-9.74021,1.54486,114.18906,122.23045,177.513
3945,4.39994,-5.99568,-0.97025,115.22665,100.74609,127.2811
3972,4.4993,-4.63338,-1.73639,101.12755,51.91799,74.24158
3998,2.64619,-4.08032,-1.7735,71.76966,35.31644,47.14199
4025,0.09517,-3.79062,0.31424,60.17299,42.82376,37.68155
4050,-0.01736,-4.92427,0.4543,59.25747,-0.32806,-10.59722
4075,2.55042,-4.0444,-0.45071,10.91765,12.36724,-119.11765
4101,1.83815,-5.98969,0.13827,9.26971,-5.88226,-151.83247
4127,-11.08456,-25.38033,-0.02813,35.5148,-62.40077,79.24647
4153,-4.5436,-22.16253,-1.87885,-24.23857,-55.74794,110.67954
4180,3.72358,-12.65156,-0.35733,16.8991,6.50787,29.50285
4206,4.47536,-11.30482,-1.18453,-24.36064,142.37202,-27.93119
4232,3.85526,-12.1823,-1.50535,-36.01834,136.63472,-58.50978
4259,2.66056,-10.8595,-2.13982,-56.46511,92.93359,-75.53858
4287,-0.54169,-11.77049,-7.73986,-137.64182,-13.51165,-96.47363
4313,-2.08715,-13.84866,-6.1094,-199.5314,-102.62291,-96.90087
4340,-1.74837,-14.4915,0.22326,-206.24527,-119.52963,-89.82079
4366,-0.36931,-15.71015,4.99371,-149.4826,-138.14534,-103.79784
4392,-0.14305,-16.22969,8.98245,-26.49687,-56.78554,-98.60986
4419,-0.36093,-14.17547,9.58818,8.9035,220.80215,-85.42627
4444,1.28389,-8.71669,-6.14173,-49.62918,163.91742,-101.72264
4468,1.34015,-8.58022,-4.67528,-37.97147,-43.35781,-106.91063
4494,0.96786,-9.15483,-2.06201,-35.71317,-191.55107,-89.08837
4520,0.993,-7.90386,3.9211,-37.05594,-160.36212,-62.17189
4546,0.54528,-6.44579,3.53923,-33.76005,-119.71274,-58.08253
4572,-0.42437,-5.72035,2.41755,-26.80204,-120.99448,-57.22805
4598,-1.94828,-5.34805,1.86568,-10.50567,-114.952,-46.3638
4626,-3.41593,-4.37959,1.94589,24.8947,-81.68787,-39.46683
4651,-4.19165,-4.28622,1.40001,61.943,-34.38565,-23.35356
4678,-4.30058,-5.22355,0.43634,96.61095,17.31108,6.55365
4704,-1.08278,-9.75697,-4.02525,91.36193,63.02638,52.39101
4731,1.09116,-14.0821,-7.29932,43.1442,141.4565,76.31678
4757,7.97329,-18.94831,-15.99865,-49.20193,57.96046,-27.99223
4783,15.92803,-14.37419,-8.61015,-33.76005,-95.23766,-133.0947
4810,4.73513,-9.17278,-3.74034,-11.4212,-112.14439,-32.50882
4837,0.9918,-4.36283,-0.92596,-20.02715,16.51763,4.53949
4863,-5.57909,-10.09934,9.77014,27.76335,115.51657,43.23574
4890,-9.7857,-14.86739,-2.95265,-145.14912,-82.90856,93.83385
4915,-8.18039,-17.12632,-22.43546,24.65056,-63.43837,24.13176
4940,1.00497,-6.53557,9.01477,145.80525,-41.28262,18.57756
4965,-0.68893,-7.78175,4.04201,88.31017,-9.97161,53.48965
4991,-0.27354,-8.69634,4.2527,18.60808,121.74215,72.8988
5018,0.61112,-9.36432,4.61423,26.17643,232.94814,66.97841
5043,2.67372,-12.6336,4.19285,91.85021,322.48663,65.87977
5069,2.34332,-12.78085,1.45747,135.97861,234.16882,60.32558
5095,1.35213,-11.81718,-0.66978,120.10947,124.67184,59.16591
5122,-0.28551,-8.75739,-0.61711,86.47912,34.88919,81.26062
5148,-0.02334,-8.14448,-0.34297,58.52504,-3.19671,99.87633
5175,0.2891,-8.76218,-0.331,33.13444,-7.04193,103.66051
5200,2.24516,-10.05026,0.18974,31.66959,18.83696,76.56091
5226,1.3641,-9.45171,-0.21608,28.43473,-0.69427,64.59804
5253,0.68654,-8.90942,-0.75477,15.8615,-42.93057,58.55556
5279,-0.00658,-9.21229,0.18974,8.59832,-58.18935,50.49892
5306,-0.72365,-9.55705,1.0337,4.69207,-40.61124,48.17959
5332,-0.9906,-9.8252,2.41994,16.22771,10.10894,41.83194
5359,-1.88364,-10.63085,3.20045,36.79654,64.85744,36.94913
5385,-2.28586,-10.87387,0.80984,25.13884,73.8296,51.65859
5411,-1.34853,-10.17117,-1.1546,-19.47783,-9.91058,75.52332
5438,0.71407,-11.27609,0.56922,-30.34208,-82.35925,76.07264
5463,3.3453,-13.45122,6.24707,29.53337,66.81056,32.49356
5489,4.91949,-12.97358,3.14538,30.44889,136.75679,-23.29252
5516,1.82019,-8.78492,-4.00131,-27.83964,157.56978,-68.88575
5541,-0.07003,-9.26377,-7.07666,-97.17553,157.56978,-99.34228
5567,-0.60274,-9.58459,-8.70232,-149.54364,63.08742,-130.04294
5594,-0.59316,-10.99597,-4.50768,-147.7126,-3.68499,-144.63033
5619,-1.92913,-14.50587,0.79787,-120.97922,-62.88906,-154.88423
5646,-2.07278,-16.90606,2.30981,-81.12329,-88.46277,-160.49947
5672,-3.46142,-19.01056,6.30453,2.92206,-45.12783,-125.2822
5698,-3.17292,-11.26651,1.29826,34.90445,109.291,-93.42187
5724,-0.64464,-7.59261,-4.44783,-8.91876,77.79688,-101.35643
5750,-0.0413,-6.88632,-4.41551,-13.43535,-91.14831,-98.36571
5776,-0.67337,-8.39587,0.47824,-22.8958,-142.96712,-78.83447
5803,-0.60513,-8.25221,1.70527,-22.10234,-139.54915,-68.94678
5829,-1.67774,-7.89428,2.04525,-12.39776,-121.23862,-49.96487
5855,-2.51571,-5.81013,1.8597,3.28827,-105.67467,-42.39651
5881,-3.35368,-5.4079,1.33537,21.72087,-94.38316,-30.49467
5908,-3.48536,-5.02723,1.09116,49.85806,-68.80946,-15.90728
5935,-3.88758,-5.72394,1.04447,66.94789,-18.8217,5.45501
5960,-2.7647,-7.21792,0.75238,79.15491,23.04838,29.50285
5987,-1.57119,-9.31883,-0.52373,69.32825,57.8384,56.17519
6013,4.2515,-15.64671,-10.82957,23.79606,63.51466,73.99744
6039,17.66023,-15.94838,-10.50157,9.88006,66.13918,-56.06838
6066,24.43462,-14.96915,-7.24066,-44.13601,32.99711,-201.63712
6093,0.84216,-10.74817,-2.04046,-19.96611,-49.5834,-39.34476
6119,-4.0875,-8.73106,-0.41719,-23.38408,-6.1264,50.62099
6147,-7.56268,-12.43369,-0.3705,-77.70533,39.40579,95.78698
6174,-6.34404,-9.39784,-1.87885,-27.47343,-54.03896,41.64883
6200,-0.5776,-6.36917,3.80139,35.39273,24.69633,14.97649
6226,-1.57598,-6.45537,4.85604,49.55288,3.51715,63.68251
6251,-0.31903,-10.35791,4.91829,27.94645,40.56546,73.26502
6276,-0.4136,-11.99794,4.51367,14.6408,96.96191,57.579
6302,-0.79547,-12.29961,4.46818,72.62415,105.44579,75.88953
6328,0.04968,-11.44847,3.56916,126.39608,102.82127,79.00232
6355,2.28108,-9.39664,-0.74759,93.19299,111.42722,39.26847
6380,0.2496,-9.81563,-0.36811,65.54408,95.31396,46.1044
6406,-0.65661,-9.76056,-0.09397,55.77846,38.18509,71.37293
6431,0.13827,-8.45931,-0.40642,46.68423,-6.43157,75.09607
6454,0.40761,-8.63529,-0.15502,34.96549,-12.35198,67.46668
6480,0.24241,-9.07582,0.20889,27.153,7.91168,59.59315
6505,-0.45191,-9.39904,0.43754,20.3781,18.47075,66.73426
6531,-0.32142,-9.35714,0.71886,21.90398,6.20269,71.18983
6558,-0.2053,-9.32841,1.14263,25.81022,1.19781,65.51357
6586,-0.63386,-9.51516,1.78188,27.39713,13.77105,63.74355
6612,-1.14263,-10.33876,1.33417,26.96989,13.22173,60.87489
6639,-1.46944,-10.40221,0.92237,29.10612,7.85064,54.64931
6666,-1.83336,-10.21546,0.46388,13.05388,30.12846,53.00136
6692,-0.60633,-9.2099,-1.05884,-27.65653,7.6065,50.98721
6717,-1.21685,-9.74859,-0.61711,-52.37576,-51.41445,72.22742
6743,-0.22924,-11.25574,1.8992,-31.44071,-51.10928,64.59804
6770,4.31016,-13.46559,5.54916,48.14907,63.45362,1.48773
6797,3.47937,-11.12286,-1.33656,13.66424,62.84327,-38.24612
6823,2.55401,-9.22785,-3.61704,-49.324,93.42187,-93.2998
6849,-1.18214,-9.04829,-6.63852,-121.22336,100.4409,-131.01949
6874,-1.49099,-10.22743,-4.83329,-151.86299,55.5801,-162.45258
6900,-2.39959,-12.33313,-2.70844,-143.44014,-0.69427,-184.9135
6926,-3.30579,-14.37299,-1.16179,-121.34543,-57.579,-184.30315
6951,-4.7052,-18.06964,5.48212,-62.50758,-74.85194,-159.64496
6977,-5.25228,-16.82944,7.77936,24.58952,-21.20207,-117.22556
7002,-3.61824,-12.47439,4.40713,23.00261,144.87447,-94.58154
7029,-0.14066,-7.1449,-4.57712,-3.12042,33.11918,-106.48338
7055,-1.08757,-8.65205,-2.65936,-12.6419,-98.89977,-89.39355
7080,-0.51894,-9.34636,0.01377,-20.45439,-124.90072,-76.14893
7107,-0.63746,-9.2099,1.3234,-13.80156,-123.00864,-60.76809
7133,-2.78386,-7.35918,2.05722,5.72967,-110.2523,-39.83304
7160,-3.62901,-6.04237,1.85132,18.85222,-84.31238,-24.08598
7185,-4.35445,-4.72675,1.5281,31.18131,-60.14247,-8.52203
7212,-4.73872,-3.62662,1.50057,55.65639,-34.50772,16.74651
7237,-4.2132,-4.42748,1.78428,87.21154,-0.14496,56.41933
7262,-3.47459,-6.49367,0.03412,78.72766,11.02447,80.7113
7288,3.5907,-15.62755,-6.04476,12.07732,93.11669,68.68739
7314,16.44637,-19.65101,-13.32912,-14.77813,76.51514,-50.57522
7340,23.18006,-16.8043,-7.3508,-21.49199,61.01222,-154.15179
7363,10.82119,-13.24173,-6.29974,-20.6375,33.05814,-56.19045
7388,-1.52451,-8.39587,0.1646,2.86102,18.34868,11.31438
7415,-5.52761,-13.18906,-0.49979,-32.47831,39.71097,56.3583
7442,-6.64211,-16.1016,-2.39001,-74.65357,-34.08048,70.57948
7469,1.76632,-7.66564,2.67612,-22.40751,-46.2875,-3.63922
7495,-0.45789,-6.53677,6.17285,44.97525,-7.22503,23.76555
7521,-0.82181,-5.46896,4.97575,37.40689,94.33739,34.93497
7547,-1.71365,-9.22666,2.48099,5.24139,142.43306,18.6386
7573,-3.64218,-11.94647,2.1063,-8.06426,131.32468,19.30998
7599,-4.461,-12.40735,2.45705,49.73598,50.51418,42.50333
7626,-0.60992,-9.96048,0.76674,53.82534,40.07718,39.3295
7653,-0.09397,-10.03949,0.96666,28.12956,98.73192,26.08488
7679,-0.44831,-10.87147,1.61788,17.99773,135.84128,26.93937
7704,-0.98222,-11.05223,1.88962,23.12468,103.85887,35.30119
7731,-1.13545,-10.19391,2.23199,31.8527,48.92727,45.79922
7757,-0.331,-9.24102,2.22721,27.3361,55.82424,42.93057
7784,0.57521,-8.69035,2.55162,25.01677,123.0239,31.94425
7811,1.14982,-8.82802,1.86808,20.5612,134.98677,21.81242
7837,0.92835,-8.96928,1.62746,15.92253,111.30515,15.76995
7864,1.4443,-9.88626,2.3541,23.42985,142.73824,1.85394
7890,1.47662,-9.23384,1.43832,26.84782,175.63615,-10.96343
7916,1.13784,-8.84957,0.14664,12.80974,190.83391,-20.72905
7942,0.15024,-9.25299,-1.19052,-19.11162,175.75822,-22.31596
7968,-1.73161,-9.76296,-0.35733,-55.97683,111.48826,-7.97271
7994,-1.30185,-9.90062,2.75393,-56.0989,76.75928,10.58196
8020,-0.46029,-10.21307,5.2032,-38.70389,91.10253,22.78898
8046,2.90836,-9.60374,5.59585,-9.346,142.18892,11.00921
8077,4.41311,-9.37869,3.95343,20.01189,269.01987,-21.64458
8103,-1.39402,-10.67156,-7.58304,-19.66093,227.45497,-45.81448
8128,-3.79661,-12.12603,-5.41389,-50.72781,115.08933,-22.377
8155,-3.77266,-12.41573,-0.30945,-47.73709,131.32468,-5.3482
8180,-2.58753,-12.29842,1.09235,-22.52958,155.67767,-13.58794
8206,-1.89441,-11.23539,-1.81421,-10.5667,148.47554,-11.14654
8232,-2.00814,-10.47643,-3.53564,-31.25761,128.57809,-2.17438
8258,-2.94547,-10.00357,-3.21841,-39.43631,119.728,14.24407
8284,-3.76189,-9.26616,-0.58,-42.30496,137.06197,29.13664
8310,-3.08433,-8.08103,0.05806,-42.67117,164.52777,32.67667
8336,-2.94666,-7.10659,0.15143,-32.72245,185.58488,40.00089
8363,-2.41635,-7.61775,0.39564,-28.20585,179.78654,58.67763
8390,-0.96067,-8.88907,0.46866,-24.48271,155.67767,66.36805
8416,0.61711,-10.17955,0.78709,-5.74493,145.54585,55.80898
8442,1.28748,-9.93893,0.0425,7.98797,155.92183,46.77578
8466,1.02651,-9.10695,-0.80625,15.25115,146.5224,36.15567
8492,0.45909,-8.83879,-1.47782,13.17595,124.4277,35.42325
8519,0.35494,-9.08899,-1.22284,18.42497,114.05173,32.85978
8545,1.27312,-9.43016,-1.06841,28.5568,116.92038,27.36662
8570,2.28467,-9.25299,-1.61788,30.44889,121.00974,18.27239
8596,3.10468,-8.78732,-2.45585,26.05436,105.01854,3.80707
8622,1.73041,-8.8771,-2.64978,33.31754,91.71288,2.28119
8648,1.9411,-9.14405,-3.37283,40.76382,90.79736,-0.52643
8674,2.2727,-9.55227,-4.34488,38.9938,86.40283,-0.58746
8700,1.08397,-11.00315,-4.6669,42.53384,56.06838,8.44573
8726,0.54767,-12.74613,-4.84287,12.62664,83.29004,4.78363
8752,0.4962,-12.94605,-6.06272,-2.87628,29.45707,-22.25493
8779,-0.94511,-9.48643,-4.59028,-8.91876,-7.40814,-22.377
8805,-3.06159,-7.431,2.1063,4.3869,50.88039,-8.52203
8831,-3.43987,-8.93576,2.91913,18.1198,78.59033,7.65228
8858,-3.89477,-10.7338,2.62704,38.74966,50.14797,23.94865
8884,-1.76991,-11.30363,2.34213,61.51576,-13.51165,32.31046
8911,-0.57042,-9.8707,2.0656,60.78334,-22.23967,39.93985
8938,0.49261,-9.50797,2.87005,65.36098,48.62209,32.5546
8962,0.9487,-10.44889,2.20207,75.85901,98.1826,17.78411
8988,0.42677,-10.29567,1.05764,77.20178,80.36035,14.42717
9015,-0.19932,-9.90781,0.76195,71.89173,60.21877,21.93449
9040,-0.00539,-8.5455,0.26157,60.23402,65.65089,20.77483
9067,-0.42796,-8.92139,0.07961,47.96597,76.51514,17.78411
9094,-0.91758,-9.87908,0.04848,39.11588,68.21436,25.77971
9120,-0.26635,-10.23701,0.21009,35.94205,42.94583,29.0756
9147,0.17538,-9.84077,0.16101,29.89957,21.76665,28.83146
9173,0.57401,-9.62888,0.18974,17.20427,22.31596,21.14104
9200,-0.06524,-9.52473,0.47824,10.06316,23.04838,16.31926
9226,-0.908,-9.23503,1.03968,10.24627,28.2974,14.18303
9251,-1.57838,-9.31404,1.83815,17.0822,49.65969,17.47893
9277,-2.56239,-10.02512,1.21566,21.47673,44.83792,24.43693
9303,-2.75273,-10.28609,1.04686,25.38298,29.27397,36.8881
9329,-2.53726,-10.51234,0.69971,15.73943,20.97319,49.27822
9354,-1.82618,-10.45009,0.3729,-1.3504,8.8272,55.01553
9380,-0.08799,-10.50157,1.44789,-2.44903,7.91168,50.49892
9405,0.65182,-11.33714,2.19488,2.79999,48.13382,27.00041
9431,0.59795,-12.28046,1.73639,1.45721,46.66897,6.73675
9457,-0.02574,-12.16075,0.34058,12.50457,22.07182,-8.8272
9484,-0.24481,-10.23222,-1.70886,-12.51983,39.46683,-17.55522
9510,0.64224,-8.57184,-3.39677,-85.33472,80.05518,-59.42531
9537,1.41557,-8.37791,-2.74914,-125.12962,101.17332,-102.76024
9564,0.34776,-10.43812,-1.68013,-129.34102,76.20997,-127.72359
9589,-0.88406,-11.8088,-0.84096,-112.19016,33.91263,-140.29683
9615,-1.93751,-14.11083,0.56683,-75.81323,-15.1596,-166.72504
9641,-3.6338,-15.75085,2.79583,-32.72245,-25.35246,-152.80904
9668,-4.69683,-15.75923,4.0073,15.92253,3.57818,-115.33347
9694,-4.69443,-13.38299,2.38522,1.33514,102.08885,-87.50146
9722,-0.52852,-7.48368,-2.58155,-1.89972,39.52786,-96.35155
9749,0.04968,-7.65606,-2.40198,-11.48223,-69.9081,-96.04637
9775,0.31184,-9.53192,0.31783,-22.40751,-99.08287,-90.79736
9801,-0.92596,-9.56663,0.84216,-21.61406,-108.05503,-75.59962
9828,-1.87765,-8.59937,1.04208,-11.4212,-98.5946,-61.80568
9855,-3.16813,-6.42304,0.85293,9.45281,-84.06824,-39.95511
9881,-3.38361,-5.60542,0.59316,22.57536,-57.02968,-18.71489
9908,-3.53683,-5.48332,1.1151,38.07828,-12.35198,5.69915
9934,-2.26192,-5.76225,0.63027,55.65639,9.37652,32.85978
9960,-1.51014,-6.6481,-0.50697,64.32337,19.14214,61.79042
9986,-0.53331,-8.85795,-3.16813,41.55728,33.11918,92.91833
10013,4.02405,-13.11484,-7.31369,0.66376,23.71977,55.80898
10040,22.26787,-17.21491,-5.1601,-8.73565,17.43315,-116.6152
10067,14.47235,-14.71895,-4.64535,-31.13554,-0.93841,-88.29491
10093,-1.00856,-8.506,-0.25319,-0.67902,-114.82993,-6.08062
10120,-4.8728,-9.52234,4.55317,0.96893,-7.04193,28.22111
10146,-7.08025,-12.05181,3.45783,8.049,22.31596,45.73819
10173,-10.78767,-13.02984,-11.92731,-64.39967,9.74273,56.66347
10198,-0.11313,-11.31919,7.33045,30.8151,1.93024,58.37246
10224,0.31544,-9.23743,5.61021,38.20035,-46.04336,77.2323
10250,0.46986,-8.0511,3.82773,34.47721,-88.40173,85.41101
10275,1.10073,-8.06666,3.82773,24.65056,-33.4091,81.32166
10301,0.89723,-9.58219,3.59908,29.35026,105.93406,71.80018
10326,1.59394,-11.19229,4.07673,82.87805,158.18011,54.83242
10352,0.27234,-10.33876,-1.26593,101.67686,64.6133,38.53605
10379,-1.06722,-9.73423,-2.27868,64.07924,5.89752,52.45205
10405,-0.70928,-9.04709,-1.54127,39.48209,-7.164,63.62147
10431,0.44353,-8.35756,-1.59155,18.36394,-48.17959,49.82754
10458,-0.29149,-8.43178,-1.04806,0.05341,-86.2655,41.95401
10484,-0.95589,-8.90224,-0.05327,-6.72149,-94.01696,41.22159
10511,-1.35332,-9.36672,1.0744,0.41962,-70.03016,45.67715
10537,-1.23361,-9.42298,3.62063,23.79606,-9.30022,44.94473
10563,-1.15341,-9.21588,3.83252,44.79214,32.99711,40.5502
10590,-1.51373,-9.24222,2.76231,48.08804,39.16166,42.07608
10616,-1.84892,-9.96287,0.31304,38.56656,14.44243,40.06192
10642,-2.26312,-10.43932,0.01975,36.00309,-19.00481,43.41885
10670,-2.69886,-10.5315,0.13827,30.02165,-9.11712,59.16591
10697,-1.14383,-9.67557,-0.96067,-15.93779,7.4234,66.06288
10724,-1.12228,-9.23623,-1.12946,-53.10818,-27.48869,82.42029
10750,0.77273,-12.82514,5.66887,-19.78301,-3.92914,74.11951
10776,2.66534,-13.89535,6.43621,44.60904,60.03566,27.30558
10802,3.52965,-12.32355,0.60274,20.98845,53.99318,-11.57378
10830,2.88801,-8.57064,-4.23594,-43.5867,94.82568,-87.74561
10858,0.55486,-8.47368,-5.64253,-99.43382,106.54442,-128.70016
10885,-0.63985,-9.17997,-5.82569,-142.34151,66.62745,-163.67328
10911,-2.50613,-13.69304,-1.87406,-130.01242,33.8516,-181.67863
10938,-3.89118,-15.70177,-1.33417,-110.60325,-57.45692,-178.99309
10965,-4.45381,-17.53693,2.30143,-49.07986,-97.7401,-138.95407
10991,-4.0444,-14.34426,7.03476,27.09196,-38.65811,-101.11229
11017,-2.01891,-9.75577,1.28628,13.66424,159.95013,-89.08837
11043,0.51056,-7.04673,-3.73316,1.70135,66.13918,-116.31004
11069,-1.73759,-8.35397,-2.95624,-3.79181,-93.71178,-95.98534
11094,-0.92955,-8.55748,0.01736,-19.4168,-130.577,-82.49658
11120,-0.97264,-8.39108,1.51014,-19.05058,-123.49693,-71.32716
11145,-2.05722,-7.95892,2.18052,-9.04083,-104.14879,-54.78664
11171,-3.77266,-6.22552,2.02849,8.65936,-85.96032,-38.36819
11197,-4.13419,-5.38037,1.47543,37.89517,-64.41492,-16.33452
11224,-4.49092,-5.17806,0.97504,65.17786,-27.97697,15.28167
11249,-2.5181,-6.2758,0.26396,83.85461,9.74273,43.17471
11275,-1.95187,-7.82006,-0.97504,84.77014,20.60698,76.8661
11302,-0.64464,-10.9014,-3.24714,29.5944,50.57522,89.62243
11328,19.00697,-18.91719,-8.56107,1.82342,33.05814,-21.70561
11355,23.54757,-17.72966,-6.40988,-25.88652,22.377,-163.00189
11381,9.56065,-13.86183,-5.92625,-19.66093,-21.26311,-45.99759
11407,-3.19327,-9.04829,0.76555,-2.5711,-9.84954,9.05608
11433,-6.9378,-12.84669,2.74914,-28.44999,56.25148,49.52236
11459,-6.87196,-11.09892,0.35973,-19.17265,-31.15079,34.38565
11486,-1.84653,-7.23228,2.80062,14.51873,-1.48773,32.73771
11512,-0.78829,-7.70155,4.03483,32.34098,16.33452,60.0204
11538,-1.1977,-9.32362,3.76668,15.73943,39.22269,78.81921
11565,-0.83977,-11.20666,3.82653,6.40106,56.12941,74.7909
11591,-1.6119,-11.55382,3.36565,52.17739,31.7764,90.23278
11617,-0.31544,-10.71465,2.55761,87.33361,20.72905,87.36413
11643,1.2803,-9.72345,1.68372,82.45081,46.5469,63.37733
11670,0.66379,-9.1656,0.60394,60.90541,72.85303,61.18007
11696,0.31544,-8.76338,-0.20411,42.71695,33.97367,63.25526
11722,0.21608,-8.35756,-0.31424,34.78238,-15.64788,64.10976
11748,0.082,-9.21828,0.42796,32.76823,-24.559,55.5038
11774,-0.30227,-9.59895,0.50458,24.22331,-0.26703,48.48477
11800,-0.7428,-9.49121,0.43036,17.57048,1.13678,53.42861
11826,-0.6626,-8.97886,1.6107,23.00261,0.16022,54.95449
11853,-0.83378,-9.29369,1.82977,33.37858,2.84576,54.95449
11879,-1.04447,-9.66599,1.88484,39.42105,4.85992,55.74794
11906,-1.58436,-9.96407,0.82899,35.08756,3.70025,55.87001
11932,-2.00814,-10.17596,0.46148,28.67887,6.14166,58.12831
11958,-2.35051,-10.35432,0.31424,8.78143,25.12358,65.51357
11984,-0.31783,-9.49121,-0.54408,-21.00371,-1.4267,55.93105
12010,-0.99539,-9.86591,-0.26157,-41.3284,-50.13271,66.67323
12037,-0.36811,-10.99717,1.51852,-25.3372,-32.73771,61.11903
12063,1.34375,-12.02787,5.62218,12.01629,75.78271,7.40814
12090,3.30579,-11.29764,-0.03292,-3.05939,66.81056,-33.24125
12117,3.14897,-8.60775,-1.88005,-37.23905,106.42235,-90.67529
12144,0.4112,-9.9102,-6.29735,-99.86107,144.63033,-146.27827
12169,-1.38086,-11.43291,-6.0711,-141.73116,86.09766,-172.7675
12196,-2.87005,-13.02027,-3.93188,-138.6794,-18.02825,-182.53313
12221,-3.77625,-14.83148,-1.90878,-117.43919,-97.55699,-176.30756
12246,-4.17728,-18.59397,5.50247,-41.02322,-91.57555,-146.40034
12274,-4.71358,-16.70494,8.15645,43.57144,21.40044,-108.92478
12301,-3.18489,-11.99555,3.74633,9.14764,170.32611,-91.65185
12327,0.0006,-6.47093,-4.78661,-3.73077,-7.95745,-106.11717
12354,-1.64661,-7.48008,-3.05321,-15.87676,-118.61411,-83.71728
12378,-0.9104,-8.07864,-0.34536,-25.64238,-141.01399,-74.98926
12404,-1.68013,-8.37432,2.86047,-13.19121,-122.70346,-64.85744
12431,-2.56958,-7.69676,2.46782,3.83758,-91.81969,-52.89455
12457,-3.60866,-6.85879,1.58556,16.34978,-79.4906,-30.06742
12484,-5.10264,-5.13975,0.68295,21.90398,-67.95496,-2.11334
12511,-4.96617,-4.79978,1.6514,44.42593,-9.11712,35.97257
12537,-4.02765,-5.51085,1.46944,62.18715,20.17973,72.10535
12563,-0.9906,-9.3715,-2.12545,59.25747,27.68705,106.65122
12590,3.5943,-11.84591,-7.04673,1.64032,58.0215,88.5238
12616,13.92288,-16.4344,-12.40017,-4.52423,55.03078,-66.20021
12643,13.377,-18.24202,-6.94378,-34.43143,-10.94817,-106.42235
12670,4.80217,-12.07336,-5.13975,-27.65653,-70.51844,-50.27004
12696,0.25678,-8.72028,-0.35255,-17.21953,-21.32414,-11.75689
12723,-7.74824,-12.05301,0.29987,-32.53934,78.5293,34.87394
12750,-4.43107,-8.11455,0.54289,0.35858,-5.63812,34.38565
12776,-5.73711,-7.23827,-1.30424,17.02117,12.00103,57.27382
12803,-0.48542,-9.89703,3.39438,11.10076,56.92287,82.72546
12828,0.93075,-9.85872,2.37684,7.19451,4.92096,56.3583
12853,-3.74872,-13.33989,2.78027,38.68863,-51.78066,109.21471
12877,-0.1239,-10.91816,-0.66499,21.17155,-57.09072,126.12142
12900,2.95504,-9.2901,-0.16101,29.7775,-54.40517,92.18591
12923,3.0149,-8.77176,-0.17897,35.14859,-35.8505,45.67715
12950,1.99497,-8.28334,0.69252,48.27114,-9.30022,9.84954
12976,1.85491,-6.38593,2.57915,84.34289,26.58842,-24.39116
13001,-3.21481,-9.52114,2.33255,94.59679,53.74904,37.68155
13027,-1.43712,-8.81725,1.10073,87.51672,51.42971,44.15127
13054,-2.18531,-9.35235,-0.78829,58.09779,15.17486,68.32118
13079,-3.11426,-8.8759,-1.15939,49.0646,-26.51213,111.65611
13104,-1.0756,-8.59459,0.42557,61.02748,-43.96817,122.88657
13130,0.0844,-8.85675,0.93434,61.88197,-35.78946,102.37877
13157,-0.18375,-8.95731,2.32776,78.66663,12.48931,78.51405
13181,-1.17017,-9.92456,0.58,52.72671,38.12406,58.43349
13206,-1.59753,-9.89224,0.34536,23.49089,52.52834,48.11856
13231,-2.5612,-9.84316,1.87047,25.32194,66.38331,43.23574
13259,-3.5943,-11.15399,-0.99778,3.65448,11.75689,45.37197
13284,-3.21841,-10.82838,-0.44233,-8.55255,-15.64788,51.41445
13310,-1.92314,-9.46248,0.23523,-15.75469,-22.3007,42.44229
13336,-1.56641,-9.86351,0.73562,-28.93827,-11.43645,37.49844
13363,-1.65619,-12.10449,2.0249,-47.98122,-5.21087,29.01456
13390,-0.78829,-11.09054,1.56401,-63.66725,-31.08976,10.39886
13416,0.52493,-10.09814,-0.62908,-100.28831,-7.59124,-31.04398
13442,0.20051,-11.15159,-8.6305,-212.71498,182.53313,-80.17725
13468,-0.4974,-11.04864,-8.52515,-241.95082,9.62066,-146.82759
13494,-2.88322,-12.97358,-3.97497,-218.57436,-173.72881,-164.34467
13520,-2.94427,-16.40926,8.34559,-142.46358,-121.97105,-189.91838
13548,-5.80055,-16.08604,10.47403,-14.59502,80.54346,-154.88423
13575,-7.00603,-14.23054,5.60782,56.14467,91.46874,-122.29147
13602,-4.60704,-8.77774,-7.13053,8.65936,66.20021,-91.52978
13627,-2.22361,-8.15884,-4.9961,-24.42167,-24.07072,-90.24804
13653,-1.39762,-8.37073,0.68175,-7.57598,-44.57852,-84.63281
13679,-1.81421,-7.40706,2.724,8.72039,-17.23479,-76.0879
13705,-2.55401,-6.40629,1.44311,11.95525,1.99127,-42.39651
13732,-4.52444,-6.78577,-0.19333,14.6408,-32.12735,24.49797
13757,-3.94026,-5.7383,-0.52852,10.49041,-74.11951,32.24943
13785,-3.96181,-5.93822,1.05165,22.88054,-52.32998,45.61612
13811,-3.222,-7.28256,1.73041,62.37025,-16.74651,53.42861
13838,-0.4555,-9.56304,-0.46268,85.50256,14.25933,11.74163
13864,-2.1877,-10.96245,-2.53845,93.5592,19.44731,54.64931
13890,-0.81343,-10.34594,-4.7064,56.14467,41.41995,47.3251
13916,7.84041,-12.38102,-8.27855,-34.73661,72.91406,-29.51811
13943,10.0347,-13.52664,-5.62697,-83.44263,32.75297,-136.9399
13969,6.01124,-15.03858,-1.2372,-8.49151,-12.04681,-124.12253
13995,-2.02729,-11.03547,-2.70964,15.61736,-12.77923,-27.44291
14020,-1.59873,-10.9026,-2.13623,-27.71757,39.83304,13.81682
14049,-1.85132,-11.47002,1.59394,-9.71221,61.31739,12.35198
14075,-3.62303,-8.3001,-7.50882,-28.26689,-56.90761,2.46429
14101,-1.83336,-6.94498,-3.12982,-43.15945,-68.62635,14.42717
14127,-1.46346,-7.66923,3.22319,-11.36016,-49.70547,23.64348
14153,-3.73196,-9.33918,3.09391,15.31218,-56.96865,28.34318
14178,-3.48416,-10.65599,-0.99778,24.46745,-84.98376,68.99256
14203,0.66379,-8.37073,1.00257,17.20427,-36.82706,46.22647
14228,0.65302,-9.73063,-1.59035,20.98845,-65.63564,38.35294
14255,-0.15024,-10.83676,-0.41839,35.69791,-70.70155,46.59268
14281,-0.62189,-10.05265,0.14664,43.87662,-47.69131,63.4994
14306,-0.22206,-9.59656,0.22326,37.10172,-20.46965,54.22207
14334,0.34058,-8.97886,0.495,48.27114,-29.44181,48.78994
14361,0.01856,-8.19475,0.47465,57.48745,-39.87881,33.10392
14385,-1.22284,-8.97167,1.39043,65.23891,12.42827,39.69571
14411,-1.84413,-9.39545,0.02095,53.21499,12.42827,40.00089
14436,-0.79428,-9.22187,0.01975,51.07876,10.71929,32.06632
14463,-1.31741,-9.91738,0.15143,52.84878,11.39068,32.18839
14488,-1.38564,-9.994,0.90082,58.21986,15.96831,37.86465
14514,-1.00736,-10.05505,-0.55605,55.35122,12.24517,37.19327
14540,-0.09278,-9.63965,-1.06123,30.99821,10.71929,18.76067
14567,0.18375,-9.4577,-1.35452,10.67352,26.46635,12.16887
14593,-0.51535,-10.90738,0.19573,-1.47247,53.07766,4.9057
14620,-1.48859,-11.41256,0.95229,5.91278,57.47218,15.64788
14646,-1.485,-11.01273,0.61112,15.12908,57.35011,27.91593
14674,0.65422,-10.77451,-0.53451,-0.3128,80.17725,10.8261
14700,1.3222,-10.98041,-0.97504,-28.20585,82.06934,-29.82328
14726,1.03489,-10.84154,-2.48578,-60.12721,63.27052,-58.14357
14753,-0.6207,-10.83556,-3.11426,-95.46655,76.88136,-80.29932
14779,-1.78188,-11.20546,-1.45986,-117.8054,88.72216,-94.45946
14806,-2.45226,-12.10568,0.24002,-86.92163,29.335,-103.49266
14834,-5.25228,-14.26884,1.53648,-70.62526,5.83648,-101.05125
14860,-4.59028,-13.86782,1.54007,-57.19753,-15.70891,-109.04685
14886,-2.57437,-12.91732,0.46029,-19.90508,-92.91833,-113.13621
14912,-2.73717,-11.73219,-1.26953,16.28874,-112.32749,-91.16357
14938,-1.21566,-10.4058,-2.92512,13.05388,-99.44908,-85.60938
14965,-0.61232,-9.07462,-1.81899,-18.92851,-63.56044,-100.31883
14992,-2.60788,-8.03793,2.19369,-10.3836,-58.49453,-94.58154
15018,-3.20524,-7.4717,2.63542,21.11052,-68.016,-80.23828
