timestamp,ax,ay,az,wx,wy,wz
26,-1.3222,3.33333,8.17799,2.05993,9.33074,-5.27191
52,-1.66217,3.20045,8.98484,1.87683,5.36346,-4.66156
76,-1.70168,3.25911,9.31045,5.90515,9.02557,-3.07464
100,-1.67415,3.29981,9.67557,10.54381,17.69255,-2.34222
123,-1.73999,3.5907,8.77774,8.22448,18.66912,-2.34222
147,-2.1039,3.59549,8.81006,2.30408,9.81902,-0.63324
171,-2.16855,3.54641,9.35953,-1.4801,4.63104,-0.3891
198,-1.85251,3.3429,9.83358,-1.4801,2.18963,-3.56292
224,-1.57718,2.7659,10.85351,10.36071,17.20427,-7.04193
250,-1.89561,2.92871,10.17835,18.66149,26.60368,-4.84466
276,-2.41276,3.04363,9.41939,8.59069,23.30778,-1.36566
299,-2.91793,2.89878,9.80725,-5.63049,20.3781,-1.48773
325,-1.99617,1.74358,11.01153,-10.94054,9.14764,-6.24847
349,-2.38522,1.33297,10.36989,-11.12365,-12.6419,-4.60052
375,-2.41994,1.22044,8.99561,-10.26916,-39.19217,5.1651
400,-2.74675,1.02771,9.1249,10.11657,-56.22097,17.79936
427,-1.51852,1.28988,9.46368,21.16393,-38.52079,17.79936
453,-1.43113,1.97222,8.79211,15.67076,-25.52031,16.88384
478,-1.59035,2.47141,8.36355,1.63269,-26.67997,13.40484
503,-1.57119,2.27389,7.75183,-12.28332,-40.47391,11.20757
530,-0.45789,2.61148,8.35876,-15.51818,-49.81228,1.74713
557,-1.02771,2.02968,8.57543,-14.23644,-60.06618,10.53619
581,0.29149,2.46064,7.8045,-20.15685,-61.71413,2.47955
608,0.1634,2.37206,7.25024,-35.47666,-66.41383,-1.4267
632,0.28671,2.27629,6.85041,-54.88582,-76.54565,-4.96673
656,-0.80026,1.50655,7.39988,-67.09284,-93.57446,2.35748
683,-3.37762,1.6083,12.43728,-35.41562,-55.85476,29.94535
710,2.4343,2.36607,9.47326,-33.4625,-13.43535,7.54547
736,3.04602,1.91716,9.89583,-18.08165,35.75895,-18.57756
761,0.4974,1.76991,9.88027,-11.79504,47.78286,-30.41837
789,-0.4148,1.26833,7.85119,-42.37363,41.37418,-30.1132
815,1.41078,1.42156,8.48565,-56.4117,63.10268,-45.55508
841,-4.1294,3.74034,6.00047,-86.62408,44.30386,-2.15912
869,0.22565,0.88645,8.17081,-117.62991,18.42497,10.10894
898,-0.31544,-0.98342,7.929,-112.99125,-15.0833,34.09574
925,0.56683,-0.84455,11.69029,-52.99373,-19.96611,54.78664
953,2.40797,-0.70449,11.44608,-0.93079,-29.42655,50.27004
980,3.97617,-2.02968,4.26826,-10.08605,-191.35269,-2.95257
1005,3.386,-3.88399,8.11215,-78.01813,-105.96458,-34.93497
1032,2.97779,-3.79661,8.53473,-64.83455,-118.96507,-34.50772
1058,1.28628,-4.04919,7.31129,-72.2198,-117.50022,17.55522
1083,-0.59915,-6.15609,10.55903,-46.1578,-66.96315,98.24364
1110,2.91554,-3.9247,8.75979,-12.46642,-73.98219,91.46874
1138,4.39875,-3.02807,8.20313,16.7694,-90.76684,57.65529
1165,4.47057,-4.20961,6.98808,15.60973,-119.45334,31.04398
1192,4.79618,-3.79541,6.76542,-11.67297,-88.99682,23.04838
1217,4.97096,-3.48416,7.10539,-54.45858,-49.99539,20.36284
1238,5.23073,-2.96462,7.98047,-53.42098,-52.00954,12.48931
1264,6.61697,-2.26432,9.16081,-38.34531,-70.50318,-20.28654
1290,6.87435,-1.82019,9.5379,-50.43026,-38.64285,-53.55068
1315,5.37558,-2.17573,7.92301,-79.54401,-19.78301,-50.86514
1338,2.87484,-3.16573,7.11257,-90.71344,-25.21513,-32.79874
1364,2.89639,-3.6745,8.29531,-101.15044,-11.54327,-27.97697
1389,2.24157,-4.13299,8.84957,-87.47857,-22.59062,-15.52581
1417,1.41916,-4.99969,9.64684,-53.90926,-43.46463,2.41852
1443,2.53247,-4.10546,9.77253,-0.38147,-82.83228,8.94927
1470,2.92631,-3.53923,10.01674,38.92514,-121.8337,11.0855
1496,4.06236,-4.17728,9.0016,108.68827,-182.44157,33.42435
1520,5.0787,-6.84083,11.62804,165.38989,-204.59732,61.62257
1543,6.84442,-6.91864,12.31398,197.86057,-198.92105,77.24756
1567,8.4246,-6.22792,12.6755,247.72626,-168.09831,91.52978
1593,9.07582,-5.90231,11.32757,250.90009,-76.54565,121.37595
1618,13.16512,-5.06074,3.15137,156.29565,-36.56766,130.89742
1646,15.26124,-5.2858,3.73555,67.3675,-15.51055,81.8252
1673,15.53059,-4.08152,8.54072,122.72636,1.15204,-17.05168
1699,10.21426,-4.07792,4.36403,156.84499,-25.21513,-49.40029
1725,5.5755,-5.43663,-0.44233,114.85281,-63.97243,-29.99113
1752,3.79301,-7.22869,-2.91793,41.54965,-130.80586,29.1519
1780,6.33566,-5.33009,6.93181,57.60189,-138.31319,49.47659
1805,8.53234,-3.26988,8.41741,79.81866,-98.76244,10.10894
1833,7.82844,-1.76991,5.11102,34.53062,-58.23512,-19.55412
1861,4.86322,-1.08397,1.30424,-47.74472,-35.34696,-16.13616
1887,4.43705,-1.67534,2.89758,-74.72224,-31.0745,8.70513
1915,6.37636,-1.04926,5.13496,-58.4869,-39.37527,0.16022
1942,8.47368,0.73682,2.82695,-64.28522,-50.42263,-21.62932
1969,9.60254,0.92356,1.5281,-91.68999,-22.22441,-41.34366
1996,10.83316,0.02334,2.95624,-109.81742,-6.29425,-57.51797
2022,9.50917,-0.34417,2.60669,-103.77494,-26.43583,-58.25038
2051,9.46368,-1.04567,2.97539,-74.60017,-38.58182,-39.26847
2078,9.96048,-2.05123,4.1294,-53.66512,-39.92459,-30.35734
2106,9.40622,-2.24516,3.7152,-63.85799,-15.44951,-16.74651
2133,6.8133,-3.94145,4.98533,-63.85799,-4.95147,17.37212
2158,7.11736,-3.71879,4.81414,-69.96149,-4.8294,38.61234
2185,8.75979,-4.46219,5.28939,-75.08844,16.59392,43.37307
2211,8.59578,-2.99215,5.80773,-70.32771,16.34978,45.38723
2238,9.07941,-3.81097,-1.2791,-134.17043,20.43913,33.60746
2266,10.16159,-3.24714,-0.4531,-159.37793,44.05972,27.25981
2293,8.96569,-2.98737,0.08918,-195.26659,62.98061,12.3062
2321,9.62649,-2.58634,1.78787,-162.61279,52.29946,-2.95257
2348,6.97012,-3.67929,1.57119,-155.59377,1.02997,54.78664
2373,0.39684,-8.25221,-2.86526,-197.70798,-23.87236,170.87541
2396,-1.72323,-12.50073,-2.92751,-208.93843,-104.56078,334.08328
2418,2.85688,-13.80557,-0.05207,-131.97318,-230.47621,398.90259
2464,21.0576,-3.4674,5.07391,15.97594,-140.32735,168.55609
2507,12.7174,-3.51409,1.84653,-89.6148,250.60254,83.77832
2531,9.35115,-5.46058,-0.07362,-42.43466,279.96042,7.78961
2573,6.39551,-9.32841,-0.59675,45.33383,328.54437,-105.24741
2600,0.95948,-10.30764,-9.59656,-55.37411,254.75291,-16.25823
2642,3.46022,-6.62296,-3.89237,-152.48097,207.57278,77.61378
2664,3.35248,-7.84161,-0.63386,-96.02348,175.34624,120.82664
2687,5.94061,-7.27059,7.27777,-71.12116,172.41655,89.75976
2709,4.63338,-8.59578,-7.49565,-128.67726,9.02557,39.5889
2732,3.02926,-10.04068,-8.55269,-204.66599,-149.60468,62.59914
2754,2.44987,-7.69915,-4.02166,-254.89787,-195.38101,80.23828
2777,3.77506,-8.12772,2.51571,-125.44241,52.84878,58.38771
2799,7.72788,-10.8607,1.06722,39.9017,167.41168,0.28229
2821,1.92195,-10.7362,-12.0973,-20.33995,64.0182,31.7764
2842,0.35015,-12.23258,-4.68246,-42.98397,-27.90067,55.09182
2864,-0.71168,-10.55544,1.50535,3.28064,-4.58526,59.66945
2886,0.42916,-10.00357,-1.05524,-29.25108,43.75454,79.75
2908,0.0018,-9.87429,3.32016,-51.46786,159.53815,110.63377
2930,0.96786,-10.31961,1.85251,-30.22764,186.08842,123.20699
2952,1.27312,-8.71908,-1.09475,-37.06357,129.87509,133.46089
2976,1.90399,-10.04068,2.78625,11.15417,79.58215,138.03853
2998,1.06482,-15.80951,5.06673,75.42414,88.49329,160.74359
3022,0.64584,-17.81705,5.64253,96.9085,140.06795,140.17476
3045,3.50092,-13.31475,3.98216,69.25959,149.89461,70.83887
3069,3.37523,-9.11772,-1.00018,34.40854,75.98108,-20.40862
3095,-0.13707,-10.79845,-4.36044,32.63853,-45.53982,-9.6054
3120,-0.33579,-10.20828,-3.42191,40.20688,-90.64477,18.59282
3148,0.68055,-8.98245,-1.67055,18.78355,-24.78789,15.11382
3174,-1.42874,-10.35073,-0.04489,-15.57921,16.34978,22.31596
3201,-1.66217,-11.04745,0.35853,9.81139,-13.00811,21.27836
3228,-0.85174,-9.90421,0.4543,36.72788,-34.79764,30.5557
3256,1.22523,-7.87992,1.92793,49.05697,34.47721,32.99711
3285,2.10271,-9.01357,1.9411,47.7142,105.88828,18.83696
3311,1.54127,-10.34714,-2.03328,36.84995,80.13147,8.39996
3339,0.75717,-9.95928,-2.37924,38.55893,28.5568,0.6485
3366,-0.03292,-10.57579,-2.75632,14.6942,26.42057,1.93024
3394,-0.29509,-12.33313,-1.15101,-10.57433,63.89613,7.17925
3421,-0.5764,-12.98076,-0.31065,18.1732,95.81749,10.84136
3452,0.10834,-11.82197,-2.08236,52.78011,97.0382,8.46099
3480,1.11749,-12.60009,-5.59465,-87.96685,38.74966,11.69585
3507,2.63661,-9.88985,-2.20326,-174.39256,50.1022,-20.0424
3533,2.24277,-9.52354,0.72844,-179.21434,42.53384,-40.06192
3561,1.01335,-10.62607,3.1382,-149.55128,46.31802,-46.77578
3590,-3.77266,-14.13118,2.95983,-109.32915,143.42488,-45.2499
3619,-3.82174,-14.4089,-3.85526,-100.96733,102.47032,-41.89297
3644,-2.25713,-10.00716,-4.31136,-55.74031,9.02557,-36.52188
3668,0.78709,-7.45375,-1.85012,-35.29355,-40.53494,-26.14592
3695,1.21805,-8.35636,-1.45508,-58.42586,-40.71805,-28.038
3720,1.00975,-8.71908,1.05764,-45.79159,-18.80644,-49.03408
3745,0.3286,-8.64127,2.02729,-19.79064,-15.32744,-63.01112
3772,-0.96307,-7.99005,-1.66696,-11.67297,-36.20145,-61.48525
3797,-1.77231,-7.45495,-2.45944,-3.79944,-74.95875,-45.37197
3824,-2.42114,-6.8145,-1.21805,10.29967,-64.33863,-21.08
3851,-3.02926,-5.67007,-0.34656,23.42222,-27.41239,1.56402
3878,-2.92871,-5.39952,-1.04208,33.92026,-18.3792,16.8228
3902,-2.31579,-5.55156,-1.81421,43.13657,-23.93339,34.52298
3930,0.55605,-7.85957,-5.89991,43.80795,-75.50806,42.70169
3957,3.17172,-9.91858,-8.65444,16.83043,-139.16768,12.18413
3985,5.31812,-13.30757,-11.09772,-58.67,-83.50366,-27.18351
4010,2.86047,-14.4927,-5.64852,-65.8111,0.78583,-46.47061
4037,1.96744,-9.62529,-3.93068,-29.55625,4.02069,-49.03408
4065,2.74196,-5.95378,-9.02554,-1.96838,-34.91972,-22.66692
4092,1.8992,-12.47439,-1.41677,26.65708,-71.78492,-33.53117
4119,-4.0468,-17.90085,6.43621,25.49742,-20.45439,-23.09416
4144,-10.52312,-11.67832,-6.16686,-39.62705,81.47424,5.59234
4170,-7.60578,-5.21397,-7.50762,-17.22716,-93.45238,43.55618
4198,-3.74992,-6.51642,4.61662,57.84603,-95.71069,66.07814
4226,-0.30227,-11.8914,6.47332,126.14432,-78.49879,35.68265
4253,0.70449,-12.3451,5.18165,149.15456,-36.8118,-4.72259
4278,0.87209,-11.21983,3.02208,122.17703,44.91421,-10.15472
4306,-0.4962,-6.19081,-5.34326,66.75716,118.70566,-0.93841
4332,-1.12468,-7.57825,-2.96701,81.83282,21.90398,-4.78363
4361,-2.09792,-9.15962,-1.22523,72.73859,-21.8582,9.49859
4386,-1.71245,-9.81563,-0.09637,52.65804,12.07732,26.83256
4413,-0.45669,-9.4972,-0.05447,53.87875,44.30386,35.43851
4443,0.81582,-9.31404,0.25319,66.08577,63.22475,33.8516
4469,1.84653,-9.20152,-0.97863,61.87434,31.24235,30.5557
4497,1.27312,-9.54508,-1.36888,56.86946,-19.78301,25.67289
4524,0.04489,-10.74937,-0.26875,52.65804,1.15204,21.03423
4552,0.91399,-10.22264,-0.47345,31.90611,27.39713,19.26421
4580,1.68253,-10.56142,-0.82061,3.40271,-15.0833,9.80377
4608,1.1151,-12.83352,0.93194,1.75476,-25.70341,11.81792
4634,0.77871,-12.0997,1.1965,10.11657,17.26531,4.49371
4661,0.47345,-11.10969,-0.09278,3.0365,56.44985,-12.16887
4690,-0.88765,-11.41136,-3.78942,-35.53769,27.94645,-22.66692
4717,-0.99898,-11.69987,-3.67929,-92.54449,-16.304,-18.88274
4745,-0.17059,-10.12807,0.26157,-132.21732,-2.69317,-26.93937
4773,-1.08158,-11.13483,1.87885,-154.37305,28.92301,-34.44669
4800,-2.28946,-12.49354,1.89082,-145.46193,49.0646,-38.47501
4826,-5.25827,-13.67508,1.01095,-91.38482,70.9762,-37.37638
4853,-5.10983,-12.32595,-0.90202,-65.4449,99.6627,-37.62052
4880,-4.16052,-10.322,-2.50613,-73.68463,108.32969,-23.27727
4908,-1.6502,-8.1361,-0.81223,-72.03669,86.05188,-15.83098
4936,-0.67576,-7.49565,0.4962,-51.77303,34.04996,-24.07072
4963,0.11432,-7.3077,-0.67217,-49.4537,10.36834,-31.76114
4990,0.09278,-7.1042,-1.26474,-47.13437,-7.63702,-34.26358
5017,-0.39325,-6.69957,-1.20249,-29.73936,-23.81132,-29.56388
5044,-1.99018,-5.76105,0.21129,3.15857,-27.7786,-21.44621
5072,-2.71562,-5.43783,-0.12031,19.33287,-12.03155,-5.57708
5098,-2.91314,-5.32889,-0.64464,47.04281,-4.6463,23.04838
5124,-1.39762,-6.61578,-2.36487,61.6302,-16.24297,38.91751
5152,-0.06644,-7.97688,-5.47973,57.84603,-67.20728,39.46683
5180,5.66767,-13.83549,-14.19223,1.87683,-82.89331,8.46099
5208,5.20559,-17.60397,-14.19103,-76.18708,-32.78349,-31.21183
5235,1.35213,-15.49707,-5.83168,-29.9835,20.3781,-38.71915
5263,0.87568,-3.65295,-5.81971,-7.40051,76.3473,-26.02385
5289,-0.75597,-7.23228,-5.00927,24.33775,-17.82988,22.01079
5316,-3.82174,-15.48989,-0.05686,49.91146,-103.88939,34.95023
5344,-6.55233,-14.50467,3.20284,-25.28379,90.14123,6.26373
5370,-5.6976,-8.5467,-1.08278,-19.05821,85.19738,9.07134
5399,-3.57155,-6.86837,3.30939,77.68244,-7.45391,48.31692
5426,-2.25953,-9.05667,3.35009,116.37869,-49.44607,47.70657
5456,-1.03011,-11.07857,3.50691,112.22831,-36.8118,19.32524
5483,0.72006,-9.30327,-1.51134,80.42902,15.00701,8.76617
5511,0.54169,-7.34601,-3.83731,59.55501,62.06507,9.07134
5538,-0.40881,-8.88548,-0.22685,66.39094,29.16715,0.70953
5564,-1.08757,-9.38707,0.06165,59.3719,27.39713,8.6441
5592,-1.30783,-9.7857,-0.79428,51.68148,14.09148,25.06254
5618,0.53451,-9.64684,-1.05405,51.13216,24.95573,31.71537
5646,1.59394,-9.11293,-1.20608,50.70492,32.46305,30.61674
5673,2.22242,-9.09857,-1.40959,53.75667,0.41962,22.19389
5701,0.93314,-9.43136,-1.03968,51.13216,-39.31424,18.0435
5728,-0.05447,-9.63367,0.07003,47.59212,-25.3372,20.85112
5756,-0.07242,-10.05265,-0.36093,45.57797,0.78583,20.91215
5783,0.6614,-10.50037,-1.3234,22.5067,-2.26593,26.0391
5810,1.72083,-11.21025,-1.33776,-10.39123,-61.34792,23.10942
5838,0.86131,-11.42573,1.95427,-3.37219,-56.46511,2.54059
5865,-1.26474,-11.61846,1.65978,20.2484,47.72183,-3.68499
5893,-2.27868,-11.82556,-1.48381,-21.01134,46.86733,-2.70843
5920,0.09996,-11.69029,-3.58352,-82.96198,-10.93291,-0.3891
5948,1.95546,-11.21624,-2.7683,-121.90237,-29.42655,-9.30022
5974,3.09151,-10.61888,-1.0313,-143.44777,-7.02667,-39.57364
6001,-1.8166,-12.78564,2.79224,-149.18507,48.027,-47.63027
6027,-3.89596,-14.24849,2.83294,-124.8931,88.1881,-38.41397
6055,-3.25073,-12.64198,-1.54486,-74.17292,69.32825,-32.24943
6082,-2.14939,-9.79408,-2.33495,-61.23347,36.79654,-27.48869
6109,-0.86251,-8.3839,-1.6107,-69.41218,29.65544,-29.86906
6136,-1.04567,-7.57346,1.3641,-61.29451,18.60808,-28.34318
6164,-0.58119,-7.29214,1.13066,-51.52889,-4.21905,-35.05704
6191,-0.17657,-7.04075,-0.18136,-56.53377,-30.58622,-42.32022
6218,-0.69851,-6.91984,-0.98462,-47.86679,-57.50271,-40.12296
6247,-1.44071,-6.74985,-0.20411,-16.73888,-62.81276,-31.94425
6274,-3.07236,-5.76464,0.55007,24.82603,-47.37088,-18.45549
6302,-3.29622,-5.63056,0.38008,54.61117,-25.58134,-4.84466
6330,-2.82217,-6.06272,-0.57281,65.17023,-12.6419,18.10454
6356,-0.4974,-7.92541,-5.70957,54.06185,-55.36648,37.02542
6384,1.61429,-10.29567,-7.61895,13.16833,-90.40063,28.78568
6412,5.17926,-13.41052,-12.98196,-66.48249,-75.50806,-21.75139
6439,1.00137,-14.60643,-4.4586,-41.58017,24.77262,-35.66739
6466,0.15862,-9.36552,-1.53289,10.66589,55.35122,-34.01944
6494,2.98377,-9.74021,-9.6217,7.55309,55.10707,-15.40374
6520,1.21326,-17.10597,-0.41001,38.92514,-88.14233,-3.25775
6547,-4.45262,-17.61713,7.5962,9.9945,7.49969,-8.5678
6574,-6.09384,-7.27538,0.33938,-21.07237,91.72814,-11.74163
6601,-5.4929,-3.21003,-4.00011,-9.29259,-3.18146,8.15582
6628,-6.35481,-6.29855,3.10229,102.76787,-41.3284,61.25636
6656,-3.72598,-12.41573,4.15813,123.76395,2.73895,56.73977
6684,-1.41916,-11.70825,1.79984,109.11552,-14.83916,32.02055
6712,2.20087,-6.51642,-4.57712,67.73372,27.45817,20.79008
6738,1.49099,-7.76619,-2.147,60.47054,44.18179,29.1519
6766,1.63584,-9.17997,-0.10235,67.42854,15.12908,12.67241
6792,-0.14904,-10.11131,-0.60274,58.94466,6.21795,12.55034
6819,-0.49261,-9.55346,-0.86012,51.43734,-4.09698,19.93559
6846,-0.45789,-9.15363,-0.7859,54.24496,4.26483,28.17533
6873,0.60633,-9.25658,-1.33177,61.69124,29.16715,32.20365
6902,1.48022,-9.6636,-1.53289,62.78987,13.84734,23.65874
6929,1.7771,-10.01794,-1.63584,50.39974,-33.27176,10.59722
6957,-0.00658,-9.52234,0.39684,38.80307,-16.05986,17.37212
6984,0.4124,-9.47924,-0.03891,23.05601,13.42009,23.41459
7011,1.50296,-12.12005,-0.89842,-0.80872,-31.01346,23.7808
7039,0.99898,-12.08773,0.15742,-0.38147,-36.6287,12.42827
7067,0.52014,-11.59093,0.23882,-6.66809,3.28827,-8.14056
7094,0.54767,-12.35707,-1.64661,-40.05429,3.65448,-30.23527
7122,-0.26995,-12.33193,-2.86885,-95.77935,-20.69853,-32.00529
7150,-1.62267,-11.21145,0.68654,-157.72998,13.84734,-44.57852
7178,-2.75393,-11.79563,3.3465,-167.49561,68.04652,-51.96377
7205,-5.04758,-13.20941,3.68168,-132.46146,112.1749,-34.14151
7232,-4.67528,-13.82472,-1.55204,-83.14508,90.4464,-22.05656
7259,-2.53726,-10.83436,-1.71604,-70.57185,84.15979,-14.85442
7289,-1.47423,-9.10695,-2.01652,-85.83062,63.40785,-10.45989
7315,-0.05327,-7.08025,0.38726,-81.06989,22.8195,-18.51653
7342,0.3322,-6.71873,1.06362,-64.10213,-22.40751,-30.1132
7370,0.38966,-7.17123,-0.46029,-58.8531,-34.24833,-38.1088
7398,-0.46627,-7.53874,-0.81942,-45.36435,-36.14042,-35.05704
7423,-1.35691,-7.3927,-0.77393,-17.34923,-49.87331,-33.77531
7447,-3.25552,-6.40988,0.48782,14.63317,-36.26249,-24.25383
7473,-3.41473,-5.81372,0.39325,43.62484,-3.73077,-5.0888
7500,-2.79343,-5.64373,-0.17538,71.33479,11.40594,16.15142
7526,-1.93392,-5.78619,-1.54366,84.39629,-13.55742,35.56058
7553,0.95948,-8.00561,-6.41826,66.75716,-79.71948,45.02102
7580,3.60387,-11.23898,-8.97526,20.91978,-101.44798,15.96831
7606,5.07511,-15.16547,-12.95922,-61.23347,-85.63989,-35.05704
7633,0.2891,-13.56495,-2.08116,-32.2418,46.74527,-50.74306
7661,0.43634,-7.50163,-2.25474,17.9901,92.5216,-42.07608
7688,2.18291,-10.4058,-6.63493,24.70396,17.99773,-3.80707
7715,-0.72365,-17.36455,0.55964,8.9569,-106.20872,14.07622
7742,-4.31495,-17.62073,5.5324,-47.62264,27.58024,-10.09368
7769,-6.08067,-5.57669,-3.79421,-80.33746,46.13491,5.71441
7796,-3.16334,-3.32854,2.30861,34.53062,-49.81228,25.79496
7825,-4.07673,-7.31608,5.75746,105.94169,-46.15017,38.5513
7853,-3.1813,-13.62361,4.46938,112.10624,8.29315,14.93071
7878,-2.33614,-12.58811,2.41156,107.89482,0.23651,13.22173
7906,0.04729,-6.03159,-6.20637,88.85186,35.75895,23.17045
7934,0.31304,-8.06786,-3.03764,72.06721,49.00356,30.67777
7961,1.1582,-9.48882,-0.67098,58.51741,-1.28937,14.32036
7988,-0.37649,-9.44213,0.17657,55.52669,-18.01299,18.65386
8014,-0.42078,-9.168,0.20291,64.98713,-2.388,30.31156
8041,0.41001,-9.13807,-0.07721,68.34407,20.68327,33.18021
8069,1.66337,-9.47924,-1.35452,67.67268,43.08316,36.59818
8097,1.89321,-9.90421,-2.51571,57.60189,-44.99051,23.84184
8126,0.83019,-9.79049,-0.27833,50.76595,-58.84547,12.79449
8153,0.71407,-9.2925,-0.14784,31.60093,7.25555,0.89264
8181,-0.11791,-10.1987,-1.0313,1.44958,17.99773,6.20269
8208,-0.05686,-12.43129,-0.4555,-14.23644,8.96453,14.3814
8234,0.53091,-11.88901,-0.29149,-16.55577,22.8195,5.89752
8262,0.55246,-11.21983,-0.79787,-30.04453,18.54704,-7.65228
8289,0.65781,-11.74176,-2.6007,-64.10213,6.6452,-28.70939
8316,0.9894,-12.24095,-3.07595,-121.84134,-39.37527,-38.2919
8343,-0.05926,-11.8088,2.68809,-163.04004,-30.76933,-55.19863
8370,-2.88801,-11.2737,4.50649,-173.04979,71.8307,-57.39589
8397,-6.854,-12.07695,3.26868,-168.47217,208.97659,-52.39101
8425,-9.77253,-12.64917,-2.31819,-72.09772,132.37752,-9.91058
8452,-3.57634,-8.90583,-1.90638,-54.09237,129.32576,10.59722
8478,-1.08038,-8.23665,-3.46261,-83.99957,65.60512,21.27836
8505,2.85568,-8.30369,-0.48782,-84.48785,-0.00763,-2.52533
8533,2.61746,-8.24503,0.46148,-66.17732,17.93669,-29.99113
8559,0.89842,-8.2175,0.7859,-37.36875,29.96061,-31.45597
8586,-2.1075,-6.26263,-1.26713,-14.35851,17.26531,-28.46525
8613,-3.41234,-5.39114,-1.19411,14.75524,-7.02667,-12.16887
8641,-4.31974,-5.36241,-0.24361,43.44174,-2.5711,15.54107
8669,-3.45663,-6.12257,-0.67337,62.8509,0.05341,40.99271
8697,-2.42952,-6.4829,-0.50338,69.86995,5.48553,58.69289
8724,1.22882,-8.68317,-2.25594,63.21712,1.27411,55.27492
8750,2.77787,-10.4884,-4.24672,34.65268,20.92741,28.84672
8777,3.39917,-12.54502,-5.90829,35.69028,59.56264,17.98247
8804,2.92152,-11.25335,-8.74662,35.202,47.78286,5.40924
8830,2.94786,-11.53945,-7.56747,3.09753,-4.09698,-9.6054
8855,4.10187,-11.54544,-6.83724,-20.9503,-59.02858,-20.22551
8881,4.64176,-9.68634,-4.48733,0.71716,-44.6243,-27.18351
8908,1.52331,-11.46643,-2.37206,65.41438,-16.79228,-35.8505
8935,-2.2715,-16.73128,1.26713,144.21071,-56.46511,-57.45692
8962,-5.25707,-14.19462,8.04272,135.90993,88.37122,-117.2103
8989,-6.01842,-8.78971,5.23791,116.86698,206.23001,-130.14975
9017,-8.11455,-6.22433,-2.53845,7.61413,-120.42991,-37.37638
9044,-10.82359,-5.37079,-0.2879,-49.75887,-121.95579,71.32716
9071,-8.1361,-7.8859,3.11905,-58.24275,56.75502,125.95358
9099,-5.50966,-10.16279,2.65936,-21.62169,86.05188,109.16892
9127,1.26474,-12.83113,6.18602,32.33335,118.52255,46.18069
9155,2.90477,-12.01829,5.61021,72.43342,70.7931,0.6485
9182,3.61225,-9.65402,3.07475,70.96857,52.42153,-2.46429
9208,4.95899,-8.89266,2.47261,48.69076,130.97371,1.01471
9234,5.21756,-9.4972,2.08116,41.12241,193.1685,-11.37542
9262,-0.26755,-10.83915,1.1582,47.04281,214.897,-16.13616
9289,-2.08475,-9.89943,-0.80984,41.36655,213.18802,-21.93449
9318,-3.48057,-9.64085,-2.94786,16.83043,121.45224,7.66754
9346,1.21446,-10.46087,0.29389,-14.72472,60.5392,9.55962
9374,2.85688,-11.15638,3.35488,0.10681,106.92589,-3.56292
9402,2.8497,-9.64205,3.06757,27.51158,158.80573,-19.8593
9429,1.02173,-9.50438,0.46627,18.66149,159.84332,-27.00041
9456,-0.95708,-9.72465,-0.72844,-4.83703,148.85701,-13.63372
9484,-2.29784,-10.2825,0.95229,-14.90783,157.524,-1.67084
9512,-2.14341,-10.02632,1.76273,-17.59337,197.07474,-6.37054
9538,-2.66774,-10.12807,1.66816,-23.33067,209.83107,-10.45989
9564,-1.7759,-10.5279,1.65619,-35.84287,210.31937,-4.41742
9591,-0.10116,-10.72303,2.03328,-50.18612,230.2168,-10.03265
9618,0.72245,-9.50319,1.16897,-68.67976,276.35934,-22.97209
9645,-0.54408,-8.88788,0.51056,-87.23443,295.09711,-29.56388
9674,-2.31699,-8.60656,-0.37769,-109.63432,284.59909,-24.25383
9700,-4.68725,-10.05625,-4.17848,-128.25003,230.76614,1.56402
9728,-4.30657,-10.8188,-2.00215,-110.91605,165.39752,50.88039
9754,-2.18531,-10.84753,-0.02933,-94.25347,141.65486,63.88087
9781,1.73639,-10.34714,-1.10911,-84.60992,115.40976,50.33108
9808,1.45867,-9.82042,-1.6107,-67.15388,96.48888,48.37795
9836,0.58838,-8.84358,-1.60711,-38.04013,77.50696,50.39211
9861,0.03531,-8.11335,-1.99138,-7.88879,67.80238,47.15725
9888,-0.14305,-8.05948,-2.75752,-2.45666,63.16371,49.8428
9916,0.05806,-7.40946,-3.21481,13.35143,33.62271,52.58937
9942,0.17538,-7.34601,-3.29622,27.45054,26.66471,51.00246
9969,-0.00539,-7.36397,-3.64218,31.96714,30.87614,50.75832
9997,-0.41001,-7.28975,-4.35326,31.53989,26.84782,50.39211
10023,-0.8242,-7.41185,-4.62979,28.54917,20.74431,49.04934
10048,-1.3617,-7.62613,-4.71239,26.84019,13.17595,48.13382
10076,-1.28628,-8.14448,-5.42945,20.37047,3.65448,43.98343
10105,-0.97264,-8.90463,-5.5731,9.62829,14.09148,34.27884
10132,-0.19812,-9.44094,-5.42227,7.7362,53.21499,13.71001
10159,-1.52451,-9.67676,-5.91787,15.85387,105.76622,5.53131
10186,-2.97061,-9.21229,-8.43657,28.30503,51.01772,22.5601
10214,-1.96744,-7.74704,-8.72268,34.89682,9.69695,27.87016
10241,0.47465,-8.55987,-4.64655,50.52181,-14.47295,15.66313
10268,-0.40881,-10.85711,-3.16813,75.60725,-26.31376,-7.53021
10294,-3.7978,-12.99154,1.86089,92.51397,20.98845,-29.80802
10321,-5.22235,-12.91373,3.57993,90.98809,102.65343,-21.38518
10345,-4.67408,-10.28968,1.45268,52.71908,142.32625,-9.6054
10371,-2.87843,-6.86837,-0.91877,32.63853,105.52208,-6.55365
10398,-2.65577,-8.23186,2.8509,41.24448,58.70815,-6.98089
10426,-3.62542,-10.33996,3.97378,69.80891,41.37418,4.67682
10453,-0.62668,-10.17356,1.49817,73.71516,55.65639,-3.25775
10482,0.76794,-9.35355,0.91877,67.30647,88.73742,-9.78851
10509,1.58317,-9.34756,-0.06045,50.39974,128.28818,-10.76507
10536,0.44831,-10.37348,-1.79625,34.77475,93.80334,-13.51165
10564,-1.02412,-10.06582,-1.37607,36.30063,23.55192,-6.85882
10593,-1.6107,-9.59776,0.51775,43.13657,6.40106,-0.3891
10621,-1.24558,-9.70071,0.87329,44.90658,20.13396,6.20269
10649,-0.51056,-9.78091,0.96187,50.27767,42.65591,12.79449
10677,1.37248,-9.70549,-0.99659,53.51254,55.10707,18.59282
10704,2.05722,-9.75817,-2.13024,43.44174,41.37418,14.13726
10730,2.13024,-9.71268,-2.50733,29.2816,2.18963,7.66754
10756,0.96307,-9.95329,-1.13306,18.53942,-9.65118,2.78473
10780,1.072,-9.59776,-0.58359,11.76452,-0.37384,2.72369
10804,1.31741,-9.84436,-0.40282,-1.23596,-21.00371,-2.46429
10828,0.91758,-11.13603,0.09756,-4.47082,-23.0789,-9.30022
10854,-2.01532,-13.43566,1.05405,9.14001,32.27995,-10.94817
10882,-3.09151,-12.65515,-1.55444,-6.72912,81.047,4.92096
10910,-2.82935,-11.55741,-4.36762,-59.21932,57.67055,17.12798
10938,1.16897,-11.0654,-3.95223,-127.57864,46.19595,7.6065
10965,3.69006,-10.13525,-2.50972,-175.18604,12.50457,-21.56828
10992,3.37163,-11.60051,2.80062,-171.27979,-42.42703,-42.62539
11018,-0.0413,-13.2956,5.24749,-142.47121,8.41522,-49.94961
11047,-3.77985,-14.19103,4.36044,-100.17387,142.08211,-45.49405
11074,-4.22876,-9.0854,-2.57796,-47.1954,89.59191,-48.42373
11101,-2.83174,-7.92062,-2.99455,-39.07773,-11.97051,-28.52629
11128,-0.52852,-8.35157,-2.78386,-67.8863,-61.22584,-27.18351
11154,1.7328,-8.92858,1.27312,-60.98933,-25.3372,-60.75283
11181,0.76195,-9.01956,1.79745,-27.17588,4.44793,-74.91297
11210,-1.2396,-7.11856,-1.40599,-5.69152,-12.03155,-72.59364
11237,-2.38642,-6.49966,-1.83935,-0.50354,-57.3196,-58.49453
11266,-4.2539,-6.22193,-0.89603,2.73132,-45.35672,-18.94377
11294,-3.89357,-5.25467,-0.68654,13.53454,-15.32744,7.78961
11322,-3.02448,-5.3684,-1.24319,35.93442,2.06756,31.7764
11348,-0.80625,-6.854,-4.12102,68.34407,-13.31328,64.55226
11374,1.95187,-8.23306,-7.42741,61.6302,-91.98754,60.76809
11401,5.43783,-11.69268,-9.88985,14.99938,-117.62229,12.79449
11428,6.02441,-18.21449,-7.65606,-65.8111,-29.30448,-46.04336
11455,3.09151,-12.8,-1.17136,-21.49962,41.31314,-56.41933
11482,2.39121,-6.22672,-3.75231,11.82555,68.41273,-50.55996
11509,-3.57514,-14.27483,-1.60352,33.49302,-37.60526,15.05278
11537,-6.31411,-17.94634,3.95223,14.14489,-59.88308,25.30668
11564,-8.00681,-15.91845,-0.23284,-110.54984,45.15835,-4.53949
11591,-5.77541,-6.30453,5.52402,-6.36291,-11.4212,24.14701
11618,-4.03962,-6.22433,6.67084,96.72539,-0.37384,56.67873
11646,-3.08074,-8.72028,5.21397,121.01736,27.39713,41.96927
11672,-2.03567,-12.15716,2.48458,113.63212,-11.23809,32.50882
11699,-0.78231,-10.20947,1.2384,109.29863,-65.19312,26.0391
11726,1.09116,-6.68401,-4.60106,98.73955,27.76335,30.86088
11754,1.13306,-8.61254,-3.03405,79.75763,64.93373,17.55522
11782,0.48542,-9.61092,-1.94469,54.36702,19.09636,12.06206
11809,-1.06602,-9.80126,-0.01616,53.51254,2.98309,26.77153
11835,-0.15981,-9.17159,0.09996,57.47981,19.76775,40.44339
11861,1.21805,-8.83999,-0.8266,61.38607,40.09244,46.60794
11884,2.88801,-10.26095,-3.55359,56.56429,-9.83428,35.0723
11907,2.56599,-10.32559,-2.69288,43.93002,-62.69069,20.05766
11930,2.0632,-10.13765,-0.71407,27.81675,-39.13113,10.96343
11953,1.6107,-10.1568,-0.18974,2.73132,-21.61406,1.44195
11977,0.71168,-11.05942,0.58359,-5.44738,-36.75077,-0.63324
12000,-0.16939,-11.59691,2.33375,18.11217,-5.98907,-3.07464
12025,-1.81421,-11.97759,0.38128,23.36119,46.68423,-2.09808
12051,-2.72041,-11.8112,-2.19249,0.22888,63.95717,13.03863
12078,-2.24995,-11.23898,-4.25629,-39.56601,22.27019,26.10014
12105,2.7264,-11.22701,-2.90716,-90.89654,-17.89092,6.93511
12132,4.07792,-10.73021,-2.11707,-137.22218,-60.06618,-14.54924
12159,4.87519,-10.67754,0.13707,-161.08691,-99.18969,-54.58828
12187,-0.75717,-13.31954,4.13778,-156.99757,-45.11258,-66.97841
12214,-5.54318,-14.49988,3.82055,-120.43753,138.48103,-54.34414
12240,-8.73106,-13.72297,0.41719,-59.76863,145.62215,-42.74747
12267,-3.40156,-8.01399,-1.57,-37.67392,66.39857,-27.61076
12294,-1.37248,-8.17799,-1.83815,-64.04109,-21.73613,-10.45989
12323,0.68295,-8.10976,-0.18495,-70.75495,-28.93827,-35.54532
12350,1.27671,-8.87112,0.91997,-52.99373,10.36834,-62.70594
12377,0.38726,-8.9202,-0.61471,-29.19004,-0.1297,-64.78114
12404,-2.69048,-6.69718,-1.8992,-9.35363,-67.02419,-54.52724
12431,-3.98694,-5.68204,-0.22446,-0.32043,-47.55398,-26.6342
12457,-3.79541,-5.08588,0.15981,13.90075,-14.16778,5.53131
12486,-2.89519,-5.66289,-1.42874,28.12193,-12.39776,29.76225
12512,-2.00933,-6.01244,-3.12503,44.17416,-68.36696,57.04494
12538,-0.58478,-6.95815,-4.07553,54.12288,-112.92258,56.37355
12566,5.16968,-13.42489,-9.66001,37.70444,-114.93674,9.49859
12594,4.82491,-17.21132,-16.56967,-63.43074,-30.46415,-51.17031
12621,2.11827,-15.39412,-5.19841,-20.7672,58.40297,-58.31142
12648,3.77386,-4.17728,-4.73034,15.85387,106.6207,-59.10488
12673,3.78703,-5.21038,-6.21235,25.43638,26.66471,-9.30022
12700,-1.61429,-14.35982,-1.00497,26.90122,-139.16768,53.44387
12728,-6.7726,-19.10872,0.66379,-73.6236,48.75942,25.36772
12754,-6.97012,-12.19187,-3.07595,-40.2374,15.73943,-11.80266
12781,-4.19763,-5.64014,6.07828,84.27423,-16.67021,23.04838
12809,-3.36804,-7.49565,5.60782,128.76881,4.44793,40.93167
12836,-2.40198,-9.75218,3.40515,103.56133,-0.98419,24.26909
12864,-1.94948,-9.5798,1.40959,92.08672,-52.19265,28.2974
12888,-0.99539,-7.07187,-0.57281,110.8245,-93.02514,28.72465
12914,-0.23643,-6.66246,-5.24629,91.84258,-8.49151,32.14261
12941,1.15221,-9.80485,-1.14982,49.54525,61.3937,18.0435
12968,0.38726,-10.39742,-0.49261,42.77036,27.82438,15.11382
12994,-0.60513,-10.12328,-0.24002,58.94466,9.51385,26.58842
13021,0.01496,-9.05188,-2.14341,56.9305,23.49089,35.49955
13048,0.66379,-9.64564,-2.44149,43.99105,7.92693,37.63578
13075,1.31382,-9.94252,-1.35691,27.57261,-42.67117,27.32084
13102,1.17855,-9.86112,1.98659,41.00034,-30.15897,15.6021
13129,0.74041,-10.4477,0.73682,53.69564,16.96013,2.47955
13156,-0.05806,-11.45685,-1.42874,15.85387,17.02117,11.0855
13182,0.13707,-12.25053,-0.57042,-10.39123,-2.14386,28.41947
13210,0.87209,-11.12526,-0.10714,-7.82775,4.93621,21.46147
13237,0.96067,-11.28567,-0.84216,-14.90783,0.72479,6.93511
13263,1.55563,-11.90457,-3.0975,-49.69784,-3.24249,-17.11272
13290,1.23242,-10.99358,-3.24354,-119.21683,-39.0701,-33.04288
13317,1.1977,-10.78767,-1.67055,-162.49072,-56.70925,-47.69131
13345,-1.51972,-12.30081,3.60986,-167.67871,-17.46367,-58.31142
13372,-4.32692,-13.4177,5.46656,-128.86038,89.95813,-58.49453
13400,-7.97808,-11.2294,-2.20925,-73.80671,135.42928,-44.82266
13428,-5.14334,-8.44375,-2.87005,-62.82038,74.76038,-21.69035
13456,-2.81618,-7.96132,-2.00455,-73.80671,18.97429,-8.32366
13484,1.12468,-7.70394,0.98342,-71.85358,-3.18146,-29.38078
13512,1.66457,-7.92181,1.0313,-61.23347,22.20915,-52.45205
13539,0.00898,-8.05709,-1.70886,-41.33603,12.19939,-49.52236
13566,-0.83617,-7.46572,-2.96342,-27.35899,-51.09402,-39.57364
13594,-2.30621,-6.63733,-1.86927,-12.83263,-60.55445,-16.99065
13622,-3.9247,-5.18644,0.36931,10.84899,-19.4168,12.91656
13650,-3.39558,-5.39952,-0.31903,30.80747,-8.61358,32.75297
13677,-2.4786,-6.01124,-1.15101,55.46566,-21.36992,46.42483
13705,0.44113,-7.60339,-4.93026,78.90314,-56.34304,45.20413
13733,3.23157,-10.41657,-7.79133,55.40462,-63.42311,3.21197
13758,6.53677,-17.19695,-14.72973,-47.92782,-38.45975,-50.19375
13785,3.44466,-14.40412,-5.40671,-50.6744,-13.74053,-64.29285
13812,1.34734,-9.0028,-2.02968,0.16785,27.88542,-51.65859
13839,-0.47465,-8.61374,-7.23827,22.26256,18.3029,-9.78851
13865,-3.53683,-17.32983,-5.37438,4.80652,-56.52614,24.14701
13894,-6.2746,-19.42715,2.62584,-42.4957,17.44841,-3.37982
13924,-5.58268,-6.57747,2.29544,-26.6876,50.04116,-15.52581
13946,-3.53324,-3.21003,3.23397,43.93002,10.42937,15.05278
13971,-4.10306,-5.21637,4.42628,101.6082,-19.84404,56.25148
13998,-3.1382,-12.57614,3.6326,118.08768,-24.36064,48.25588
14024,-2.1063,-13.13998,2.02729,104.11064,-45.35672,25.12358
14050,-0.95828,-10.6129,1.20368,99.28887,-54.32888,15.23589
14076,-0.51415,-7.57466,-3.85766,75.91241,20.25603,24.94047
14102,0.58,-9.36791,-0.40163,69.32063,37.83414,13.22173
14130,0.45789,-9.9102,0.73921,61.81331,11.58904,4.24957
14156,-1.57,-9.21828,0.46507,67.24543,2.18963,15.41899
14182,-1.16657,-8.96449,-0.06404,70.90754,15.06804,25.24565
14209,-0.26995,-9.19673,-0.83378,65.90266,63.95717,39.28372
14236,1.94589,-9.90541,-2.91913,52.71908,34.23307,35.92679
14262,1.84294,-10.08378,-2.20446,47.7142,-56.22097,18.65386
14290,0.55845,-9.89583,0.46627,51.25423,-23.81132,17.55522
14317,0.72604,-10.21546,-0.32741,48.20248,33.62271,9.19341
14344,0.61711,-11.33355,-2.5588,13.59557,21.90398,12.55034
14371,1.10073,-11.9333,-2.51571,-17.59337,-15.38848,10.9024
14397,0.63985,-10.86549,1.23481,-6.11877,-9.77325,-0.5722
14422,-0.38367,-10.82359,0.34058,-4.40979,21.11052,-0.93841
14449,-0.55007,-11.83873,-0.83857,-23.81895,11.3449,-6.73675
14476,0.69492,-12.22898,-2.3134,-62.51521,-31.13554,-18.45549
14502,1.20608,-12.0554,-1.49338,-122.93998,-57.80788,-33.10392
14529,0.84336,-11.9321,0.64584,-153.09131,-19.47783,-42.56436
14556,-3.94505,-11.93689,2.54324,-165.90869,75.06555,-43.47989
14584,-6.12616,-11.49995,1.74956,-116.8975,155.6319,-51.35342
14611,-7.44537,-10.7374,0.81104,-55.74031,116.56944,-24.559
14638,-2.34931,-8.68916,-1.93751,-70.32771,42.96109,-1.48773
14668,0.40163,-8.91661,-2.71203,-109.63432,16.71599,-15.09856
14696,0.39085,-9.01956,1.5269,-89.18756,34.41617,-35.72843
14723,0.35733,-8.73345,0.84216,-43.83847,47.66079,-55.38174
14752,-0.60154,-8.55748,-0.9511,-29.80039,33.56168,-53.42861
14779,-2.36008,-7.67641,-2.69288,-28.03037,-9.40704,-41.16055
14807,-2.50254,-6.79654,-1.37726,-8.255,-25.70341,-18.69963
14834,-2.57556,-5.41748,0.25438,10.05553,8.17108,9.37652
14860,-2.46423,-5.34087,-0.14425,33.24887,24.71159,39.52786
14886,-1.71485,-5.64613,-0.73801,61.6302,5.6076,64.24708
14913,-0.17897,-6.70556,-3.95223,70.23615,-41.87772,78.28516
14938,1.95906,-7.78415,-6.76422,70.35822,-97.05346,67.29884
14965,5.10863,-10.74937,-8.52994,45.88314,-65.6814,16.21245
14993,6.23151,-17.8362,-10.34834,-74.78327,12.07732,-63.07216
15020,0.89603,-13.41052,-1.62985,-25.83311,15.19011,-52.2079
