timestamp,ax,ay,az,wx,wy,wz
23,-1.7735,5.4522,7.05452,-9.01794,-24.53611,-27.74046
45,-2.55042,5.01645,6.8127,-23.60533,-40.52731,-15.59447
66,-2.73717,5.86639,9.86411,-8.7738,-28.44236,-7.2937
91,-2.26192,6.26144,10.29028,-3.40271,-19.16502,-8.14819
114,-1.94349,6.37875,8.56765,-20.55357,-26.61131,-12.35961
139,-1.32938,5.83407,8.08402,-45.39486,-28.86961,-16.93724
163,-1.16538,5.65211,10.05086,-36.60581,-14.58739,-19.989
188,-1.13066,5.12658,10.75236,-5.41687,-7.56835,-16.63207
211,-1.29227,4.55317,9.56962,8.07189,-11.71874,-7.11059
235,-1.41437,4.36643,7.63391,1.41907,-18.98192,-1.06811
258,-0.16221,5.14215,7.37534,-9.68932,-22.03367,-4.30298
281,0.61351,5.39833,8.14268,-15.12145,-17.39501,-21.0266
305,0.49859,5.06673,8.41203,-14.99938,-15.68602,-31.03635
330,-0.21727,4.47297,8.02896,-15.7318,-20.62987,-32.01292
356,-1.0313,3.89716,7.27119,-24.39878,-25.08543,-26.09251
379,-1.15341,4.37959,7.89129,-28.48814,-8.78906,-15.89965
405,-0.79188,4.5412,7.98825,-28.97642,13.61083,-12.42064
429,-0.86012,4.35565,7.49265,-30.74644,22.64403,-8.88061
456,-1.43592,4.59148,6.8115,-35.202,22.70506,-6.2561
479,-1.55084,5.09187,7.32386,-36.66684,18.98192,-10.52856
502,-1.27671,5.47135,7.68419,-38.43686,18.55467,-20.05003
525,-1.00257,5.34565,7.68419,-42.77036,20.99608,-30.97532
549,-1.50775,4.64176,7.03536,-55.95394,-6.34765,-30.30393
573,-2.30143,4.05039,6.56131,-70.17512,-22.7661,-16.38793
597,-2.47381,3.72239,8.69095,-89.58428,-16.35741,2.04468
621,-2.01532,3.45663,9.99579,-106.24687,18.2495,8.57543
645,-2.13623,2.96223,11.15698,-106.79618,82.3974,17.79173
668,-2.86766,2.39121,12.13381,-83.41974,148.86462,37.44504
692,-3.17172,2.02729,12.73955,-60.28743,199.03549,53.00899
715,-3.06997,1.57239,12.18409,-20.4315,219.17708,43.91476
741,-4.05398,3.18369,7.99304,-5.53894,130.85928,3.38745
768,-4.73513,3.25073,7.09163,-37.82651,115.53947,-13.51928
794,-6.38833,1.37726,11.88003,-26.47398,131.83583,-17.30345
819,-6.96773,-0.0425,9.87488,2.39563,103.75968,-2.7771
845,-5.72394,0.17657,5.74249,2.88391,30.02928,-10.34545
870,-4.96857,1.84892,4.13239,13.32091,-80.74945,-39.21506
896,-3.222,2.21763,2.65996,35.78183,-237.42659,-57.34248
922,-4.51127,2.21883,7.15747,55.49617,-296.81375,-59.23458
949,-5.86759,1.67654,7.98706,62.63728,-182.31187,-17.66966
974,-7.75542,-2.19488,7.46273,29.92246,-108.4594,66.37568
1001,-3.26749,-3.03645,7.24246,-33.24887,4.21142,172.27161
1027,0.05207,-1.17017,7.38492,-42.16,62.49995,198.39464
1052,0.83139,-0.56563,4.79559,-38.61996,45.95944,215.11824
1077,7.50642,1.7771,2.91614,-5.90515,-79.956,107.02507
1102,5.67486,1.58077,2.32716,40.4205,-230.16342,54.59591
1129,3.13102,-1.47184,1.95367,102.3101,-377.01389,85.3576
1156,2.01173,-3.72957,-0.03472,134.59767,-461.54752,140.53334
1181,4.07912,-3.72119,-4.59806,63.49177,-495.483,195.58702
1206,7.94217,-3.61105,-4.29759,4.53186,-518.06604,224.57869
1232,10.76732,-4.89195,2.25294,60.80623,-525.93951,243.98785
1257,13.2956,-5.81971,7.07247,46.34091,-297.72925,269.56155
1282,16.04175,-4.73394,3.23457,-85.4339,-105.40764,256.92728
1309,19.00218,-3.39438,5.60961,-79.69659,-99.7924,221.16072
1335,16.76959,-4.89195,13.77743,-1.75476,-95.2758,218.10896
1360,18.75199,-3.79421,10.99417,-7.18688,-3.90625,207.733
1385,20.95106,-2.44508,7.22331,-49.48421,25.2075,166.83948
1410,21.42631,-0.81702,6.8115,-33.9813,-4.21142,103.72916
1436,17.61594,-1.1582,9.85693,-3.82995,33.26413,69.1833
1461,16.12196,-0.88166,8.51618,5.26428,91.55267,37.93332
1485,14.09646,-0.8266,4.44244,-14.5111,102.60002,16.81517
1511,10.33038,-1.66457,0.59616,-30.6854,79.58978,-4.85229
1537,9.56543,-1.87646,0.2885,-39.9017,34.17966,-24.81077
1562,9.51875,-2.58035,1.72263,-35.44614,3.60107,-36.28537
1588,8.84957,-2.75273,2.07577,-45.33383,8.42284,-40.25266
1614,8.84358,-2.33854,1.32758,-60.28743,8.36181,-52.52071
1640,9.60614,-1.83575,2.07936,-61.4471,3.23486,-70.70918
1664,9.2913,-2.05482,2.17753,-68.03889,21.24022,-71.4416
1689,8.4629,-2.7264,2.66953,-72.25031,57.80025,-59.53975
1715,8.02117,-2.47501,1.68791,-73.28791,82.51947,-53.07003
1741,10.3244,-1.74238,4.13718,0.86975,-23.62059,-88.53143
1768,9.496,-2.74795,7.16465,138.07668,-202.5145,-98.48016
1794,10.24658,-1.10193,4.98712,210.70847,-199.76791,-90.97283
1820,3.16094,-4.27185,-13.76307,-88.11944,70.73969,47.88205
1844,3.97856,-2.65816,-7.72609,-162.21606,198.54723,77.17889
1870,17.10118,-1.71604,9.17219,-65.29231,193.60336,20.78246
1894,13.77444,-1.74118,6.63673,14.11437,104.91936,-63.32393
1921,8.41861,-3.56078,2.9305,42.25156,24.23094,-44.70822
1946,8.64008,-2.24636,-0.07422,43.89951,-62.68306,-54.47383
1972,13.10406,-0.32142,-0.0012,37.00254,-124.20644,-84.38103
1997,11.42693,-2.10989,2.33554,41.09189,-95.82512,-50.01828
2022,11.86387,-1.17495,4.09289,50.30819,-85.6933,-55.38937
2049,11.37665,-0.72963,2.49835,50.97958,-94.60442,-73.21162
2075,8.60656,-1.53887,5.80714,69.10701,-97.04583,-70.404
2101,7.15806,-1.64901,7.34421,94.31451,-66.03999,-47.14962
2128,7.65606,-1.54606,8.47428,126.54105,-38.33005,-25.78733
2153,6.49966,-1.96863,5.52582,135.51321,-6.16455,-3.02124
2179,2.69168,-4.56514,1.63045,151.74854,-78.12494,46.47823
2205,3.13341,-5.18644,-0.88825,179.03123,-128.41788,55.81661
2230,7.79133,-4.08391,-2.75094,128.67726,-103.14934,82.00067
2256,8.506,-3.52008,-0.0431,81.80231,-35.03415,85.23553
2282,8.8771,-3.67211,3.31717,68.25251,10.37597,76.87373
2308,6.80731,-3.13341,-2.2278,23.39171,18.55467,96.8322
2334,15.16787,-0.56324,-3.57933,-6.08825,-23.37645,46.78341
2360,21.26231,2.72161,1.25336,1.41907,-13.85497,-65.33809
2381,15.09245,-0.07721,-2.57018,-51.74252,28.80857,-77.05683
2450,8.16363,-1.11749,-0.91818,-38.37582,165.89342,-59.47871
2473,2.21643,-2.63063,-2.6025,-3.76892,46.26461,-23.468
2508,4.70042,0.17897,1.06303,17.89855,-11.2915,31.4636
2534,5.30615,1.98539,-0.66439,-23.97154,-18.2495,63.20186
2578,5.86041,1.44191,-5.30316,-140.48756,-75.56147,128.38736
2620,24.14493,-0.00658,7.5992,-61.56917,-12.20702,-33.47776
2642,22.71439,-2.70724,8.9184,-24.9481,14.83153,-51.72726
2664,2.95026,-9.08779,2.46124,4.89807,-36.25486,17.05931
2685,5.63176,-6.13574,0.05267,17.22716,-48.21774,57.15938
2707,7.36995,-3.99652,-4.16591,-43.62484,-23.49852,102.81364
2729,8.96329,-3.63021,-5.2864,-144.57692,27.52683,123.26041
2751,8.86154,-5.60662,-3.15077,-236.98407,58.04439,125.88492
2772,8.5898,-6.58465,-1.55623,-269.63788,15.62499,111.7858
2794,8.63529,-6.31411,-2.03627,-272.62857,-93.81097,102.5695
2816,9.09497,-6.25545,-1.24259,-192.06223,-178.3446,68.02363
2838,12.06378,-4.48494,5.88136,14.72472,23.62059,-23.89525
2859,10.35672,-2.26073,4.67348,53.17684,78.73529,-47.08859
2881,8.26419,-2.26192,-0.19992,45.48642,87.09711,-61.55391
2903,6.75584,-3.41952,-0.82959,54.33651,26.00096,-30.73118
2924,4.86442,-5.7383,1.91895,69.47321,24.84129,54.59591
2946,4.28383,-5.45579,2.99754,83.02301,76.53802,140.83852
2968,3.07116,-5.39833,1.30723,97.00005,57.98335,190.52109
2989,2.96342,-4.95181,-0.42497,115.61576,6.7749,225.37215
3012,3.86843,-4.72077,-0.33399,124.16067,3.54004,227.08113
3034,4.53881,-4.46938,-0.01556,125.74758,-1.64795,208.03818
3056,5.54677,-4.27784,-0.40582,116.34818,-15.13671,183.80724
3077,7.98646,-4.461,-1.78967,39.87119,-211.42563,71.25849
3105,11.34792,-10.27053,-7.66025,-145.85866,-232.42169,35.67502
3132,7.81647,-9.62768,0.92057,-90.25567,-97.71722,44.28098
3158,6.86956,-9.91618,2.67552,-33.92026,-79.40668,24.32249
3183,6.8133,-11.85549,-1.94888,-1.02234,-155.33437,23.22386
3208,7.20236,-10.82359,2.41814,37.36875,-89.96576,13.15307
3232,1.33177,-9.88147,2.04106,34.80527,-7.44628,116.3024
3258,0.98102,-9.24222,-2.81558,7.33947,-67.56587,152.4352
3285,5.1625,-9.92696,0.63805,8.07189,-72.57075,114.28825
3310,6.3165,-11.92372,1.18633,6.54602,-59.50923,22.12523
3337,6.93062,-13.49193,1.42455,-12.31383,-32.77586,-99.945
3364,2.42353,-14.25927,2.77488,-19.27184,72.87592,-59.72285
3387,-0.4543,-9.33439,1.63883,-2.60925,95.70306,-18.58519
3413,-0.26157,-8.03674,0.36392,23.2086,63.84273,17.05931
3439,0.71886,-7.3101,-0.51356,24.55137,53.64986,32.13498
3463,1.42036,-8.21151,-1.59334,21.9879,34.97312,46.78341
3489,1.59633,-9.40143,-2.05422,16.00646,2.31933,69.54951
3515,2.11588,-9.97604,-2.1045,6.05773,-23.68162,87.79901
3541,5.23313,-8.04392,-0.47525,-89.9505,153.32019,99.0905
3565,5.58986,-8.70113,1.49638,-45.21176,202.6976,58.80733
3591,5.16729,-8.61374,3.57574,2.09045,286.19363,51.66622
3620,5.72513,-9.12131,-1.06662,-20.37047,212.70737,45.44064
3645,6.71873,-9.49241,-1.73939,-61.4471,145.38564,16.14379
3670,6.87076,-8.42939,1.66397,-33.37094,170.22691,0.88501
3698,6.48649,-7.74464,1.65439,-37.27719,182.1898,9.12475
3723,4.68605,-8.74662,-1.56102,-48.50766,117.8588,4.18091
3748,2.0656,-8.24144,-0.58059,-57.72396,90.94231,37.50607
3773,1.72802,-9.24222,0.20351,-53.87875,104.4921,48.30929
3797,1.26593,-10.73979,0.97324,-28.61021,81.48187,68.45088
3821,1.3198,-13.93246,-3.56257,-48.81283,13.91601,87.79901
3846,3.87202,-12.6336,-2.06979,-59.1888,-26.67234,58.19698
3873,5.77541,-10.05385,0.32681,-43.86899,-4.82177,-8.5144
3899,4.47416,-8.35995,0.58538,-45.21176,27.83201,-45.50167
3925,-1.4455,-8.59698,-1.79326,-55.52669,27.34373,-25.60423
3951,-2.38163,-9.19912,-1.81241,-45.39486,40.58835,-6.98852
3977,-2.00574,-9.97365,-3.05261,-46.18832,63.17134,8.14819
4003,-2.09433,-10.60931,-3.66792,-57.29671,27.70994,31.89085
4030,-0.66858,-10.26454,-1.1959,-65.04816,91.00335,46.17306
4054,-0.15263,-11.18392,0.22266,-45.82211,140.25868,69.06123
4079,3.15855,-9.0435,-1.45567,-30.74644,128.1127,53.92452
4104,3.51888,-7.42981,-1.36469,-17.44078,108.4594,24.32249
4130,2.64021,-7.27897,-1.10014,-2.48718,85.63226,5.0354
4155,1.40599,-8.19236,-0.84036,6.42395,78.43012,5.52368
4179,-0.43754,-10.20229,-1.99916,7.64465,78.30804,28.77806
4203,-0.1239,-9.75338,-2.63482,6.91223,71.22797,41.96164
4229,0.167,-9.10814,-2.34033,1.66321,79.52875,44.28098
4254,0.25079,-8.74901,-1.62566,-7.43102,101.44035,47.21066
4278,0.65781,-10.25616,-0.13048,-16.46422,147.76601,56.18282
4301,1.51733,-10.83556,0.61172,-1.14441,207.58041,48.79757
4326,1.97342,-10.56621,-0.14844,3.92151,244.32355,46.90548
4350,2.64739,-9.92097,-1.88903,14.66368,198.42516,41.10715
4376,3.58831,-9.64564,-2.98677,20.52306,148.07118,35.49192
4402,5.52761,-9.93534,-3.50511,16.92199,127.31924,25.7263
4428,5.75027,-9.79528,-3.94804,6.24084,111.0839,11.74926
4455,5.45818,-8.18398,-4.73214,-4.13513,60.6689,-24.44456
4481,0.65062,-9.40502,-4.69623,-13.10729,-0.36621,-32.62327
4508,-1.12946,-10.14603,-2.77368,-19.45494,34.72898,-14.98412
4534,0.06764,-9.72704,-0.78171,-19.57701,84.71674,4.18091
4560,1.93631,-8.90344,-0.21428,-6.5155,89.90472,12.54272
4587,2.98377,-8.88788,-0.22745,7.46154,59.4482,-0.45776
4613,2.80541,-9.22306,0.24421,25.71104,47.42428,-6.98852
4638,1.83695,-9.15004,-0.45969,35.11045,38.9404,-22.67455
4664,0.79787,-8.93217,-2.33195,20.9503,27.03855,-10.52856
4689,0.76076,-9.13208,-3.15915,-6.08825,37.84177,-0.7019
4715,2.21045,-8.70113,-0.29928,-25.07017,56.03023,7.4768
4742,2.65457,-10.94569,0.13647,-33.30991,70.49555,6.62231
4769,3.65176,-10.38186,0.21428,-34.16441,73.60834,-3.93676
4796,3.635,-9.80725,0.02155,-32.45542,66.65034,-18.09691
4821,3.31417,-9.79408,0.04429,-38.43686,68.60346,-26.82493
4846,3.04961,-11.78007,0.91459,-41.67172,109.49699,-50.14034
4872,0.66619,-11.24257,1.51433,-36.78891,134.76552,10.34545
4898,2.81259,-8.5874,0.75896,-4.98962,85.99847,7.59887
4924,3.05919,-8.67599,0.16999,-13.77868,78.24701,3.75366
4950,3.03645,-9.30207,-0.00359,-16.09801,73.42524,3.81469
4977,2.82935,-9.12011,2.14281,10.63537,102.47795,-7.23266
5004,2.99574,-9.76535,1.62686,38.71152,120.1171,-28.22874
5030,1.72323,-11.07378,-1.32878,22.84239,48.33981,28.10667
5056,3.25791,-8.24743,-1.72742,17.83751,-30.57859,31.4636
5082,2.36727,-10.58896,-0.48483,19.30235,-29.05271,30.12083
5108,1.83815,-10.55903,0.31005,34.01181,-11.16943,43.9758
5134,2.37445,-9.99759,-0.87508,31.93662,-0.36621,27.55735
5160,3.57155,-8.00561,-1.09176,21.37755,1.09863,23.52904
5185,4.25988,-8.31446,0.47525,24.49034,57.61715,14.4348
5220,4.47297,-8.57663,-1.11211,32.73008,73.54731,3.9978
5246,4.23115,-9.23264,-2.53426,32.73008,-11.16943,-7.72094
5272,2.98377,-9.68155,-1.51314,41.51913,-19.71434,3.63159
5298,0.94511,-10.36989,0.0826,48.96542,19.95848,28.83909
5322,1.8154,-8.77774,0.15562,50.06405,53.28365,34.57639
5347,2.82935,-8.3396,-1.36829,46.27987,30.51756,34.27121
5372,2.72041,-11.34193,-2.41575,26.44346,13.30565,49.95724
5399,3.72358,-12.27687,-2.30202,2.02942,1.77002,49.46896
5425,4.05877,-11.6017,-2.41096,-47.65316,-11.4746,28.77806
5451,5.1182,-11.83155,-2.98557,-88.85186,-28.01512,4.54712
5477,5.06553,-12.17751,-3.57694,-132.7361,-14.46532,-60.45528
5503,1.77231,-12.85148,-5.17866,-199.1423,51.51363,-82.24481
5529,-3.53803,-15.34743,-2.66116,-244.6745,110.71769,-18.64623
5555,4.0887,-11.63881,2.75692,-221.9084,165.09998,-65.09394
5582,2.44867,-11.61846,3.31597,-152.38942,163.08582,-83.9538
5608,-0.30945,-11.49995,2.05662,-80.79523,84.83881,-48.12619
5634,-0.28431,-7.89428,0.17119,-32.33335,17.94432,-16.38793
5660,1.02532,-7.42981,-1.30843,-12.00866,-50.2319,-14.4348
5685,1.57239,-7.55431,-0.56503,3.37219,-54.56539,-21.57591
5711,3.58113,-7.02758,0.40941,18.20372,-22.21678,-28.96116
5736,3.93307,-6.38234,-1.16478,7.94982,-13.79393,-12.60375
5762,4.72675,-5.9885,-3.28604,-3.28064,-69.64106,-29.69358
5789,1.2372,-6.87555,-2.20386,0.62561,-88.3178,-8.81957
5815,-1.29107,-7.21193,0.41899,11.42882,-57.80025,20.59935
5841,-1.01454,-7.44657,0.79847,48.90438,-35.40036,38.84885
5868,-0.14904,-7.16046,0.02274,88.88238,-61.58443,56.18282
5894,1.27551,-9.42298,-8.84298,78.26227,-110.35148,62.34737
5920,7.41424,-10.62247,-17.66562,-43.74691,-116.82121,8.94164
5946,9.71148,-10.97083,-8.37013,-23.17808,21.42332,-23.28489
5972,7.38312,-7.89548,-5.22894,-23.23912,105.83488,-65.82636
5998,5.11342,-7.97688,-5.79995,-3.2196,-26.91648,-79.2541
6024,2.62823,-10.5279,-6.16268,57.57137,-171.69176,-43.67062
6049,-0.81582,-18.48623,4.48434,76.24812,-115.35636,17.54759
6075,1.78787,-11.30722,-1.54187,27.48106,-11.90185,24.6887
6101,2.36966,-4.35924,-2.56299,-0.71716,6.53076,-21.0266
6128,0.57281,-3.49853,-1.87945,30.1666,-21.91161,-35.55295
6154,-3.08912,-12.76768,1.3204,-7.79724,64.69722,19.80589
6181,-1.84054,-13.49552,0.42138,-39.04721,26.55027,54.47383
6208,1.18453,-9.90302,1.47363,-27.87779,-15.01464,31.95188
6235,2.58873,-6.76542,4.63039,20.9503,-18.12743,-17.66966
6261,0.35614,-9.64684,5.17267,135.02492,-2.01416,-11.87133
6286,-0.79667,-12.70663,3.40934,158.95068,-61.8896,2.9602
6312,-0.30107,-10.0754,-2.32956,156.26514,-120.42227,9.49096
6338,-0.56204,-9.67437,-0.54827,163.71143,-57.1899,20.23314
6364,-0.17418,-10.34116,-2.3523,113.84574,30.33445,38.97092
6390,1.56042,-9.50917,-7.32745,12.34435,84.28949,51.78829
6416,1.34614,-8.70472,-3.82833,-24.45982,54.38228,60.94356
6444,1.49458,-8.1744,-1.59454,-21.83531,22.46092,60.51631
6469,3.14897,-9.43495,0.7841,-21.6522,38.02488,56.85421
6494,3.56317,-9.83239,1.05824,-8.16345,88.80608,50.44552
6519,3.96061,-9.67796,1.07859,15.09093,120.72745,28.28977
6547,4.35445,-9.54389,-0.28611,21.74376,88.3178,2.83813
6573,4.32572,-9.58698,-0.64045,39.74911,67.38276,-23.16282
6599,4.27904,-9.98562,-0.7003,50.36923,56.82369,-53.00899
6626,3.91991,-10.58058,-1.35392,40.11533,45.95944,-76.01923
6652,2.10869,-14.1623,-2.81079,1.54114,32.83689,-70.404
6678,1.41916,-16.41764,-3.99473,-66.39094,19.77538,-41.96164
6703,2.73478,-12.41453,-2.25055,-129.07401,52.06295,-48.00411
6729,0.83617,-9.19673,-4.09528,-153.30493,80.62738,-57.5256
6755,-0.70449,-8.10856,-6.50026,-198.4099,39.48972,-69.79365
6781,0.32142,-10.13166,-1.77889,-213.66866,73.91352,-64.97187
6806,-0.61112,-12.61684,1.816,-185.95872,95.33685,-40.4968
6831,0.01736,-9.98203,2.5199,-84.15216,65.12446,-37.75022
6858,-0.0808,-8.32644,0.83917,-21.16393,-3.90625,-28.96116
6886,0.4136,-8.27735,-0.38666,0.38147,-42.17526,-7.90405
6912,1.0756,-8.31566,-0.78769,8.74328,-69.58002,7.4768
6938,2.18411,-8.01998,-1.68552,5.14221,-89.53851,10.89477
6963,3.74992,-6.88752,-1.84832,-3.95202,-86.48675,-9.61303
6989,3.02687,-6.22433,-1.0331,-1.02234,-59.26509,-7.96508
7015,1.37248,-6.38953,0.26097,16.00646,-7.38525,5.46264
7042,1.87885,-5.97293,0.82121,26.5045,33.81345,-5.64575
7068,1.83216,-6.55233,-0.39624,48.84335,33.08103,-15.96068
7094,1.04926,-7.44657,-1.14323,100.35698,-7.20214,-8.81957
7120,-0.13587,-9.40861,-3.64038,130.26418,-136.10829,24.62767
7146,9.28651,-12.91492,-23.95878,34.13388,-360.47336,-11.62719
7171,7.11257,-12.63839,-12.35288,-65.29231,96.61858,-56.12178
7197,1.2384,-7.70753,-2.50673,-62.17952,280.09012,-43.48752
7224,-1.69928,-13.90014,-1.71904,-31.05161,75.25629,17.7307
7250,-1.65739,-17.22449,3.92529,18.20372,10.2539,79.55927
7276,0.63506,-16.89648,2.21105,44.44882,0.42725,96.40496
7302,0.93553,-9.75338,1.72143,67.03181,26.48924,69.30537
7328,4.60106,-4.48135,-3.51828,19.79064,-46.08151,12.66479
7355,3.5931,-5.95498,-3.10887,-30.56333,-98.63274,-10.52856
7381,2.67732,-8.73704,-0.17717,-45.51693,-66.03999,-7.23266
7406,0.97264,-10.40341,3.64637,-40.20688,-4.82177,-2.22778
7434,1.16298,-9.72585,4.56215,-6.14929,110.29044,-12.35961
7460,1.18333,-10.0347,3.68587,40.78671,93.20061,-18.09691
7485,0.62549,-11.25095,-2.28407,62.02693,-39.1235,-20.72142
7510,-0.27234,-9.61092,0.14844,117.62991,-84.10638,-4.60815
7537,-0.69252,-9.2063,0.67397,145.46193,-80.38324,11.68822
7563,-0.28671,-11.12406,-0.9924,150.10059,-64.81929,36.40744
7588,0.30586,-10.83077,-1.24139,144.5464,-32.34861,66.80293
7614,1.17376,-9.86591,-1.61848,134.90285,-13.06151,74.55439
7639,2.53247,-9.13208,-1.84354,112.564,13.24462,66.55878
7665,4.67767,-7.66085,-2.68031,76.12605,34.2407,44.28098
7691,4.97096,-8.20313,-2.24097,38.52842,69.58002,12.78686
7718,4.85843,-8.95611,-1.02472,42.4957,81.3598,-10.16235
7744,3.67809,-9.31524,-2.88621,23.2086,46.50875,-28.96116
7771,2.35649,-9.35834,-2.08894,-10.66589,48.27877,-35.79709
7797,2.07039,-9.88027,-1.61609,-26.71812,71.59418,-28.77806
7824,2.6438,-12.03146,-0.50757,-38.61996,113.1591,-27.92356
7850,3.27347,-12.36904,-0.96486,-49.24008,109.80216,-42.69406
7877,2.61866,-12.44805,-2.54384,-100.5706,34.17966,-35.73606
7903,1.83216,-14.15512,-2.64918,-141.83034,-31.92136,-18.9514
7929,2.34692,-13.20342,-2.84311,-170.76099,-42.84665,-15.2893
7955,2.73597,-11.27609,-4.57771,-198.4099,-55.17574,-37.2009
7981,2.72999,-11.34672,2.07098,-184.24974,-23.37645,-78.46064
8007,0.90441,-11.6017,2.92093,-136.7034,7.50732,-83.40448
8034,-0.07482,-12.19187,2.62524,-93.36846,-0.30518,-61.98115
8059,0.98701,-10.34475,1.9824,-17.13561,16.66258,-29.02219
8084,3.27587,-8.68916,-0.78171,-0.22888,16.1743,-32.01292
8110,4.33889,-7.30291,-3.14598,-27.57261,-3.05176,-50.99483
8137,3.30101,-7.03117,-3.28245,-45.02865,-38.87937,-46.78341
8162,0.17059,-7.49445,0.22505,-38.86411,-48.03463,-24.07835
8190,-0.19692,-6.81689,1.08338,-4.19616,-49.92672,-2.89917
8216,-0.05327,-6.3991,0.87269,21.9879,-53.52779,6.19506
8243,0.43275,-6.32369,1.30125,61.66072,-33.14207,7.59887
8270,-0.00778,-6.70197,1.03669,107.00981,-30.39548,15.4724
8296,0.33818,-7.27658,0.99599,156.6924,-72.63178,25.54319
8321,0.72604,-9.94492,-6.57687,151.01613,-175.90318,32.01292
8348,5.98491,-11.8926,-28.8633,-62.72883,-521.36188,-26.82493
8375,6.20757,-15.69459,-14.87996,-57.66292,79.58978,-37.75022
8403,1.36888,-7.2275,-4.86981,-95.62676,375.36594,-13.64135
8429,1.15221,-9.55227,-3.06817,-70.23615,232.7879,5.27954
8456,-0.331,-16.43919,2.68151,2.39563,35.88865,33.53879
8483,2.53366,-12.58692,-0.15323,23.81895,-84.53363,32.50119
8510,4.70281,-7.431,2.69827,94.92486,-44.61667,-7.35473
8537,4.64894,-5.51444,2.38582,103.95805,-44.49459,-21.14867
8563,-0.46388,-8.37312,-1.08936,48.29403,-23.07127,3.75366
8589,-0.07362,-9.05786,-0.5375,-15.30455,41.93112,24.99388
8615,1.88005,-9.68155,-0.11732,-55.34359,44.6777,33.05051
8641,2.96701,-10.58417,1.72861,-24.33775,33.50828,23.77317
8666,4.05039,-11.51671,3.93846,93.88726,25.26854,9.18578
8693,3.87801,-11.75493,0.826,134.84181,-39.73386,-4.60815
8720,1.19531,-8.5491,-1.71305,131.85109,-75.31733,-9.55199
8746,-0.12749,-7.79971,-1.30963,113.05228,-56.1523,7.72094
8773,-0.48542,-8.26778,-1.82438,91.01861,-42.54147,32.25706
8799,1.58436,-8.41622,-1.09894,76.37019,-6.16455,44.09787
8824,2.96462,-8.31566,-1.1959,63.24763,26.97752,37.13986
8850,3.9211,-8.84239,-1.50835,48.90438,44.92184,23.52904
8876,4.83928,-10.39622,-0.8679,47.43954,59.20406,6.2561
8904,4.38199,-10.47284,-0.44772,65.4449,62.98824,-8.63647
8931,3.31298,-9.48762,-2.17872,49.08749,14.70946,-7.84301
8957,2.24037,-9.23384,-2.3116,15.51818,-5.85937,3.50952
8981,3.11067,-10.2406,-0.98043,-9.50622,16.72362,9.18578
9007,4.20242,-11.08456,0.61052,-4.80652,62.68306,-0.76294
9033,5.12658,-11.81598,-0.57102,-0.22888,56.09127,-28.28977
9059,4.48733,-12.78683,-2.62285,-31.05161,-18.67674,-40.61887
9085,3.9235,-12.58452,-3.19746,-71.94514,-101.68449,-19.31761
9111,1.54007,-12.00393,-1.48201,-87.08185,-128.29581,58.56319
9138,4.69563,-11.53107,-2.07098,-144.33278,-177.36803,-1.31225
9164,2.13024,-11.00315,1.37188,-150.80251,-130.00478,-30.36497
9190,0.33459,-9.34996,2.74136,-139.20583,-86.30365,-30.73118
9217,-0.44831,-11.65677,1.55144,-123.51981,-74.89008,-16.6931
9243,0.80864,-11.55262,1.56102,-79.20832,-51.87984,-15.71654
9269,1.51733,-10.76732,0.33639,-49.05697,-35.21726,-18.70726
9297,2.6019,-8.99202,-5.84065,-85.06768,-6.71386,-27.43528
9323,0.56683,-8.72627,-1.79326,-112.41142,80.1391,-6.80541
9350,0.03651,-8.85077,-0.25738,-91.11016,66.16206,8.14819
9376,0.47704,-6.59064,0.71706,-53.08529,13.30565,13.33617
9402,0.67337,-6.36439,1.14084,-1.93786,-30.02928,30.426
9428,1.63704,-6.16926,1.79924,39.87119,-32.40965,29.14427
9455,3.06637,-6.14173,1.10014,68.31355,-24.29198,18.7683
9481,3.22319,-5.75267,0.63925,110.1226,-51.94088,-9.42992
9508,2.74555,-6.69479,0.40701,148.26955,-88.01263,-29.26634
9534,0.6207,-11.54544,-2.42892,173.59911,-117.43155,-36.28537
9560,1.06243,-15.49946,-33.86958,-69.68684,-152.46571,-10.83373
9586,1.38924,-15.45637,-14.24789,-80.30695,56.82369,-16.87621
9612,0.3298,-6.85161,-3.63919,-71.45686,236.93831,-26.39769
9638,-0.27593,-9.28412,-3.49314,-41.36655,265.25861,-2.04468
9664,-0.07242,-14.29279,-1.55743,-28.61021,134.15517,23.04075
9690,0.10235,-16.1459,0.83797,-14.87731,-4.33349,24.87181
9716,2.76231,-7.23947,1.31561,1.72424,-62.62202,8.27026
9742,3.24115,-4.00011,1.41737,20.70616,-52.12399,23.28489
9768,2.62345,-4.47057,0.87029,42.25156,-32.53171,34.57639
9794,1.96744,-11.02231,3.04662,42.92294,59.87545,35.43088
9820,2.30621,-12.57016,0.79966,-5.35583,83.92328,36.71262
9845,3.31896,-11.74176,-1.55025,-29.89194,8.91113,5.46264
9871,4.31615,-8.10258,0.27414,-9.26208,-40.64938,-37.50607
9898,2.41515,-9.23144,0.87149,98.15971,-90.69818,-40.55783
9926,1.28389,-9.47445,4.47835,168.8994,-22.21678,-29.69358
9952,-0.38726,-10.22025,-2.6839,152.66408,-48.95016,2.16675
9976,0.12989,-8.81365,-2.79643,139.84671,-70.73969,6.92748
10002,0.13228,-8.0918,-2.21344,146.8047,-51.26949,21.45384
10027,2.3517,-9.27813,-5.7401,89.7979,26.85545,28.1677
10051,3.66852,-9.14166,-4.69742,35.53769,71.53315,13.09203
10076,3.5919,-8.96569,-2.74974,-6.39343,109.55802,3.02124
10102,3.63021,-9.12251,-1.45208,-9.20104,98.14445,-12.72582
10127,2.08954,-10.16638,0.34477,50.43026,66.83345,-7.17163
10153,1.84054,-9.83837,-2.79164,46.21884,21.05711,-9.00268
10180,0.99898,-9.04709,-1.93092,24.06309,-4.6997,6.56127
10204,1.36769,-9.68634,-1.13246,13.19884,11.2915,18.70726
10230,3.10708,-10.84035,-1.02951,5.56945,37.04831,21.75902
10256,4.49092,-12.5127,-1.76094,-3.89099,32.34861,11.9934
10282,5.00687,-12.77606,-1.98719,-21.77428,7.56835,-8.14819
10309,2.60429,-12.48995,-2.32477,-62.91195,2.74658,-7.17163
10335,1.39163,-11.77648,-2.19429,-128.09744,26.91648,9.30785
10361,1.04327,-10.9828,-2.31878,-192.06223,41.13766,10.7727
10387,1.37367,-12.95922,-1.46765,-226.60811,-0.73242,0.27466
10414,2.13862,-12.16195,1.98599,-204.45236,39.48972,-31.15842
10439,1.16179,-11.71543,2.90417,-163.07056,92.40716,-45.62374
10462,0.52253,-10.86549,1.87945,-94.6502,57.98335,-41.65646
10487,1.65499,-8.80647,-2.09732,-60.28743,-19.53123,-45.1965
10514,1.43353,-8.83999,-0.81523,-48.08041,-24.84129,-39.76437
10539,0.75477,-8.25461,-0.28012,-43.68588,6.7749,-19.31761
10565,0.92237,-6.39312,-0.23703,-27.57261,22.58299,0.64087
10591,1.09475,-5.90709,-0.05267,-6.27136,6.71386,3.87573
10618,1.33058,-6.22672,0.164,17.10509,-12.32909,4.79126
10644,1.54246,-6.81928,1.05225,65.93317,-21.48436,8.88061
10671,1.25037,-6.69359,-0.34716,77.34674,-42.23629,9.30785
10699,1.05884,-6.44938,-0.73981,82.90093,-65.67377,17.18138
10725,1.85012,-9.54628,-0.96127,101.15044,-80.07806,23.89525
10752,3.18728,-13.52425,-8.66462,120.19339,-166.62585,8.81957
10778,6.7702,-15.28758,-36.15364,-68.89338,-150.8788,-27.06907
10804,3.18968,-13.04181,-8.54251,-65.04816,262.26788,-50.62862
10830,0.24002,-6.02321,-3.84509,-23.48326,273.49835,-38.29953
10854,-1.00616,-11.26891,-0.85952,23.08653,100.21965,34.88157
10880,-0.42318,-15.08527,1.42455,11.24572,-3.84521,70.09882
10906,5.62817,-10.64761,0.88705,-10.97106,-25.57371,11.07787
10931,2.10031,-6.59184,2.71024,31.87559,7.62939,52.39864
10955,5.92505,-4.35924,0.38307,64.52937,-39.79489,-19.25658
10984,0.94511,-7.05511,-1.09654,45.9747,-68.54243,-7.23266
11011,-0.82899,-11.646,0.3316,4.83703,-41.13766,36.77365
11037,1.34973,-9.79528,1.3228,-9.01794,4.33349,35.36985
11064,3.69126,-9.07343,1.58376,11.734,11.77978,0.7019
11090,2.35051,-10.45967,1.86748,62.57625,-11.04736,-7.2937
11117,1.21087,-11.25095,0.97564,95.3521,-38.81833,-0.5188
11143,0.87329,-10.46565,-0.58778,99.19732,-70.43452,2.53296
11169,0.167,-8.62571,-0.76974,108.29154,-88.68401,8.39233
11194,-0.25917,-8.65205,-1.01394,106.76566,-81.54291,21.88109
11219,-0.23762,-8.9202,-0.87747,103.59184,-51.94088,37.50607
11246,0.88885,-9.96766,-1.05824,93.46001,-10.2539,50.9338
11272,1.76632,-9.88386,-0.94451,75.14948,55.23677,58.80733
11297,3.07954,-9.32601,-1.06303,49.94198,96.49651,46.96652
11322,4.68485,-8.4234,-2.20626,15.82335,91.55267,20.41624
11348,4.11384,-9.00878,-1.68552,-5.78308,71.83833,-1.25122
11374,3.65774,-9.7869,-0.0407,2.76184,86.73089,-15.22826
11400,3.08194,-10.8164,0.85832,15.45714,92.71233,-21.0266
11426,3.55838,-9.42058,-1.50595,8.80431,55.9692,-42.51096
11451,2.44747,-9.37869,-1.56581,-9.07897,8.85009,-40.61887
11477,2.25354,-9.87548,-1.31681,-22.20152,-23.19334,-32.31809
11503,3.7978,-11.97041,-0.80325,-32.08921,-29.17478,-42.02267
11529,3.48296,-12.45164,-0.11851,-26.65708,-1.64795,-41.59543
11555,3.28664,-13.32553,-0.22625,-25.80259,21.24022,-29.08323
11581,3.29741,-13.87739,-1.50954,-58.63948,17.08983,-29.81565
11608,3.47937,-10.51234,-1.97163,-109.97002,-2.92969,-61.61494
11633,1.97222,-9.18835,-1.57538,-143.90553,-31.55515,-72.90643
11656,0.77273,-8.51797,-1.37547,-169.54028,-43.70114,-71.92988
11682,0.08559,-9.332,0.07063,-182.7849,-9.15527,-60.33321
11709,-0.53091,-11.87105,1.1959,-179.36693,30.27341,-35.79709
11734,-0.15862,-11.47002,-0.22984,-138.83961,-32.65379,-18.03587
11759,0.58838,-10.72423,-0.07302,-56.38118,-59.08199,0.33569
11785,1.75076,-9.14884,-0.20949,-10.66589,-27.4658,5.15747
11811,2.0632,-8.81246,-1.20309,-1.75476,-24.65819,4.42505
11837,2.36846,-8.22947,-1.26773,1.4801,-25.57371,4.11987
11863,2.99096,-7.12933,-0.71467,6.66809,-31.67722,4.48608
11889,2.56239,-6.59423,-0.62369,12.10021,-45.7153,23.95628
11918,2.11588,-6.23869,-0.40821,16.98302,-41.93112,13.51928
11946,1.03729,-7.53036,0.01077,47.56161,-56.51851,4.91333
11973,0.93434,-7.61177,0.24301,88.63824,-61.95063,1.80054
11999,-0.2879,-9.48403,-1.48081,135.63527,-52.85641,11.26098
12025,0.02693,-11.66036,-13.27226,55.31307,-114.44083,22.12523
12050,3.72239,-11.96921,-15.98968,-30.07505,-29.96824,-5.27954
12073,6.27221,-10.70507,-11.58075,-53.39046,145.69081,-35.43088
12096,5.83048,-8.33122,-6.34823,-54.8553,237.67072,-49.28585
12119,2.61866,-9.06505,-5.07331,-18.90563,125.42715,-38.17746
12141,0.36811,-13.51587,-1.52152,12.22228,5.37109,-1.12915
12166,-0.53451,-14.23892,2.07577,30.47178,-18.67674,29.08323
12192,-0.12031,-12.99872,1.72263,17.53234,-22.46092,24.5056
12217,1.55563,-10.26933,-3.61884,-14.14489,-179.38219,-13.70238
12243,0.65541,-7.32925,-0.77572,12.46642,-137.02382,-5.34057
12270,-0.60513,-9.13687,4.33111,42.80087,55.17574,50.32345
12297,1.71126,-9.91379,1.8974,8.49914,119.38467,44.46408
12324,2.68689,-10.56023,-1.24977,-41.91586,59.99752,20.41624
12350,2.90117,-10.09814,-1.04866,-76.76691,-1.34277,-14.00756
12376,2.1075,-9.84675,0.82839,-75.54621,-1.34277,-20.59935
12402,1.38325,-9.17638,4.40653,10.5133,89.11126,4.60815
12428,1.39762,-10.18912,1.42216,73.37946,44.06735,9.91821
12454,0.70569,-10.3244,-0.6596,116.8975,-34.72898,21.39281
12481,-0.44712,-9.94611,-1.2785,150.64992,-94.84856,41.65646
12508,0.31544,-9.71148,-1.13126,160.04932,-96.49651,61.43184
12535,2.59591,-8.93217,-1.97881,127.27346,-57.61715,67.59639
12561,4.73992,-8.63768,-2.04345,98.95317,39.18454,32.6843
12587,4.78182,-8.69035,-4.72376,11.85607,141.17421,3.69262
12614,3.84329,-8.20792,-5.42646,-43.44174,119.68986,-11.32201
12641,3.19207,-9.41101,-0.50996,-51.98666,131.65273,-24.13939
12665,3.06877,-10.51354,-0.31963,-41.91586,141.66249,-35.00364
12689,2.42952,-10.54706,0.50518,-9.01794,158.26405,-28.83909
12716,1.734,-9.82281,-1.26534,0.4425,128.4789,-22.97972
12742,1.44789,-9.8288,-1.31681,-10.36071,108.15421,-10.46752
12768,1.71724,-9.78091,-0.50159,-10.36071,116.27188,-2.04468
12794,2.38043,-9.73901,-0.45131,-15.91491,114.5629,-5.27954
12822,2.75154,-9.59776,-1.53708,-31.96714,80.56635,-11.32201
12849,2.26551,-10.13525,-1.47842,-48.99593,42.17526,-11.44408
12873,1.71006,-11.62684,-1.28808,-61.81331,18.55467,-1.25122
12897,2.68929,-11.1061,0.55186,-54.8553,27.89305,-0.5188
12924,3.31058,-9.19194,0.26815,-42.52621,20.44676,-21.14867
12950,3.12623,-7.73507,0.1233,-35.56821,13.42772,-41.59543
12976,-1.30185,-9.22546,1.29167,-25.19224,25.51268,-29.57151
13003,-2.49895,-10.03829,0.95529,1.78528,-4.82177,9.7351
13029,-1.49817,-10.21666,0.30526,23.08653,-42.29733,28.35081
13055,2.33495,-9.9916,-0.08499,30.89902,-52.79537,23.89525
13081,3.12982,-9.92576,-0.17119,37.67392,-57.49508,8.45336
13107,3.09391,-9.80126,-0.21787,46.34091,-54.38228,-7.41577
13134,1.35452,-10.05265,-1.1564,49.69784,-49.56051,-16.44896
13161,0.23044,-10.21905,-2.86825,38.40635,-77.02631,-10.65063
13189,0.06404,-10.08976,-3.43568,3.00598,-44.92184,-1.00708
13216,1.03489,-9.79528,-2.31759,-33.55405,12.87841,1.98364
13242,1.25277,-9.91858,-1.42455,-49.42318,38.57419,2.53296
13268,1.49219,-9.83718,-0.39385,-45.02865,49.25534,-0.5188
13294,1.40719,-9.48283,0.2885,-31.78403,45.83737,-1.86157
13320,1.27551,-9.12131,0.16999,-20.61461,36.01072,-0.03052
13347,1.10313,-9.10814,0.25498,-9.26208,23.55955,4.36401
13373,1.32579,-9.56663,0.44053,8.13293,10.07079,7.90405
13399,1.49578,-9.65043,0.2047,21.56065,-3.41797,7.2937
13426,1.30544,-9.61212,-0.11732,30.1666,-17.39501,9.00268
13453,1.39762,-9.87668,-0.84276,32.4249,-30.7617,11.19994
13479,1.6909,-10.04068,-1.07141,31.57041,-34.36277,9.97924
13505,1.94469,-10.04188,-1.31083,26.93174,-29.23582,6.4392
13531,2.04764,-9.64684,-1.76932,11.18468,-14.46532,0.76294
13557,1.84653,-9.53431,-1.55264,-0.47302,1.34277,-1.25122
13583,1.68253,-9.56903,-1.403,-9.07897,7.62939,-0.33569
13610,1.64063,-9.83478,-1.25815,-14.08385,4.27246,0.88501
13636,1.86448,-9.80366,-0.64643,-10.60485,-1.2207,-1.31225
13661,1.80942,-9.57621,-0.74579,-6.33239,-9.15527,-4.18091
13686,1.17974,-9.50079,-0.73263,-4.50134,-16.60155,2.04468
13712,0.11313,-10.43692,-1.35153,-7.43102,-31.37205,15.4724
13738,0.42318,-10.26813,-1.16358,-2.05993,-32.65379,25.23802
13763,1.32579,-9.69472,-1.6496,-9.38415,-24.53611,20.11107
13788,2.16496,-9.39904,-1.77051,-18.23424,-14.89257,7.78198
13814,2.11947,-9.7881,-1.26055,-17.50182,-13.42772,-0.09155
13841,2.03447,-9.79887,-1.26534,-17.86803,-11.90185,-7.04956
13865,2.33614,-9.39545,-1.21147,-20.85875,-3.35693,-16.75414
13890,2.38043,-9.21109,-1.04866,-25.49742,0.36621,-23.95628
13916,1.54845,-9.71866,-0.50996,-21.89635,-0.24414,-24.5056
13940,1.47662,-9.80126,-0.54468,-9.56725,-6.71386,-23.468
13963,1.47543,-9.7462,-0.93853,-1.02234,-21.66746,-23.468
13985,1.37726,-9.62409,-1.32998,-0.7782,-26.48924,-23.83421
14008,1.25755,-9.39904,-1.03908,-0.65613,-27.28269,-24.44456
14031,0.98222,-9.56065,-0.98521,-0.59509,-34.17966,-21.39281
14056,0.97025,-9.60135,-0.80565,1.4801,-43.94528,-19.13451
14081,1.32459,-9.46607,-0.39504,6.72912,-47.48532,-20.53831
14108,1.39642,-9.36552,-0.2478,10.75744,-53.58883,-22.36937
14134,1.02053,-9.55466,-0.25618,15.39611,-66.83345,-21.69798
14161,1.06362,-9.65043,-0.2071,19.60753,-77.51459,-22.2473
14189,1.09235,-9.67796,0.00958,27.05381,-83.55707,-23.59007
14214,0.2472,-9.52832,0.23703,30.22764,-83.435,-21.69798
14239,-0.64823,-10.11969,-0.10654,28.15244,-97.351,-12.96996
14267,-0.92356,-10.56142,-0.06105,32.54697,-126.15958,0.21362
14293,0.25438,-10.14244,0.88945,39.87119,-129.57755,0.21362
14318,0.99778,-10.0323,0.83318,49.94198,-139.34315,-10.7727
14344,1.33537,-10.10533,1.05943,78.01813,-147.64394,-15.2893
14370,0.58598,-10.12089,0.75178,115.43266,-151.61121,-4.42505
14396,0.68414,-10.19272,-0.76016,138.44289,-174.68248,10.83373
14419,0.72125,-10.71465,-1.66996,149.9175,-173.95007,22.49144
14445,1.13066,-10.95647,-0.97324,159.07275,-121.58194,33.05051
14471,6.06032,-9.75697,-12.23796,102.92046,-62.98824,22.85765
14497,8.66402,-8.45452,-16.49246,-100.50957,40.77145,-23.83421
14523,2.69886,-10.36151,-3.10528,-112.8997,64.75826,2.71606
14548,1.47782,-11.8914,-1.44729,-113.32694,3.72314,36.1633
14572,4.07074,-10.37946,0.83199,-90.68292,-24.35301,32.25706
14597,6.00286,-8.55269,1.55743,-65.41438,-52.6733,-6.86645
14622,6.17524,-7.67521,0.94212,-52.04769,-79.89497,-47.6379
14649,3.19566,-8.67,1.40181,-29.83091,-90.393,-67.1081
14674,1.68133,-9.68155,1.42455,1.54114,-104.24797,-63.20186
14701,0.83617,-9.74859,1.18752,38.40635,-120.3002,-44.58615
14727,0.45071,-10.20947,-0.15562,60.7452,-151.55017,-25.05491
14751,1.28748,-9.52952,-0.69432,72.95222,-189.33092,-16.6931
14776,1.66696,-9.31883,-0.92895,86.37994,-229.73615,-9.30785
14801,1.46226,-9.89943,-1.17914,82.71783,-276.73322,9.79614
14827,2.34811,-10.68592,-2.32357,65.68903,-315.49048,19.50072
14853,3.49134,-11.04864,0.76734,95.41314,-253.35674,15.2893
14879,4.18806,-11.18392,1.01155,111.03812,-160.09509,-2.65503
14905,4.12461,-11.38503,-1.26294,92.23931,-106.5673,-11.9934
14930,4.25031,-9.09378,-2.41575,59.89071,-82.15326,-24.26146
14958,4.38558,-7.8464,-2.51271,15.15197,-72.93696,-39.03195
14983,2.55282,-6.82168,-1.93332,-43.80795,-62.01167,-30.30393
15007,0.89603,-7.53156,-1.41138,-65.78059,-92.04095,-2.9602
