timestamp,ax,ay,az,wx,wy,wz
22,0.64823,4.35805,8.81306,9.41467,5.49316,6.50024
45,0.46747,4.67647,7.434,-7.06481,15.9912,7.4768
67,0.18375,4.70401,7.65187,-13.96178,19.10399,9.61303
89,0.10116,4.69683,8.63469,-5.72204,12.87841,10.65063
111,-0.1239,4.59028,8.86693,4.83703,4.88281,15.10619
132,-0.04369,4.80456,8.08282,0.93079,8.97216,18.40208
154,-0.01018,4.94462,7.84101,-6.21032,19.53123,22.18626
176,0.19932,4.92667,7.99783,-12.55797,27.40476,24.38353
197,0.19812,4.82491,8.36534,-13.04626,23.92576,24.38353
219,0.15024,4.71598,8.75799,-8.34655,14.34325,23.83421
241,0.14305,4.61423,8.74003,-8.16345,8.30077,22.85765
262,0.28311,4.625,8.55688,-11.94762,8.54492,22.12523
285,0.33579,4.56754,8.52096,-14.08385,13.61083,21.45384
307,0.35733,4.51965,8.84418,-9.20104,18.85985,20.1721
329,0.29868,4.46339,9.08839,-0.28992,18.4326,19.50072
351,-0.03651,4.43107,8.61075,4.16565,12.39013,18.9514
374,0.0018,4.50649,8.12951,0.2594,10.19286,18.15795
396,-0.19333,4.50888,8.02417,-4.86755,11.2915,19.92796
417,-0.19094,4.55557,8.22049,-6.5155,14.40429,21.0266
439,-0.14784,4.56754,8.31147,-5.90515,18.31053,23.52904
464,-0.31783,4.72675,8.52336,-3.89099,20.20262,27.67942
490,-0.48303,4.85843,8.23965,-11.45934,19.34813,30.85325
514,-0.54767,4.59387,8.16543,-22.32359,16.54052,39.39816
538,-0.11193,4.98174,8.47906,-25.86363,23.31541,40.98508
562,-0.19453,4.65373,8.66103,-15.42662,25.75682,45.25753
584,-0.69252,4.46818,9.12789,-1.9989,30.88377,56.54903
608,-1.00257,4.90033,8.93636,7.27844,29.17478,60.57735
633,-0.06883,4.91949,8.39527,13.68712,29.41892,53.31417
658,-0.13228,4.89315,8.51378,6.85119,41.50388,47.69894
683,-0.00299,5.07152,8.65743,-0.9613,48.88913,43.73166
706,-0.33339,5.09187,9.17338,1.17493,55.66402,36.52951
729,-0.06764,5.83048,8.65624,-2.42615,50.72018,18.40208
763,-0.63506,5.69162,9.36731,2.57873,41.80905,7.90405
788,-0.49979,5.32171,9.98023,-4.37927,35.70554,6.13403
813,-1.38086,4.2132,10.64462,9.10949,6.34765,18.09691
840,-1.29227,3.82773,10.37288,32.79111,-22.39989,28.1677
865,-0.61471,3.9642,9.94911,39.32187,-25.87889,32.25706
893,0.03292,4.30537,7.17303,29.19004,-33.69138,29.81565
918,-0.54887,4.27066,6.82707,5.02014,-11.59667,27.55735
945,-0.69013,4.13778,6.22492,-25.68052,37.35349,27.43528
970,-1.74238,3.47578,5.60961,-37.94858,48.88913,38.72678
996,-1.63105,3.47459,5.96396,-49.118,33.56931,50.20138
1021,-0.80266,2.34093,7.2257,-63.15608,33.87449,57.5256
1048,2.63901,3.63619,7.85897,-46.12729,3.17383,31.15842
1074,2.47261,3.20165,7.6794,-34.53062,-29.41892,6.31713
1100,2.16017,2.95265,7.51899,-40.7562,-49.49947,-7.72094
1126,1.84653,2.53845,8.35217,-31.60093,-59.26509,-8.75854
1152,0.62429,1.91237,8.31985,-11.58141,-72.20454,2.83813
1176,1.4036,2.37325,6.40808,-15.5487,-100.21965,2.34985
1202,2.32896,2.55042,4.9548,-21.4691,-153.56435,-2.28882
1227,3.21362,0.68893,6.06691,-19.51598,-168.2738,5.70678
1252,3.0161,0.43993,5.43244,-27.26744,-167.29723,18.28002
1277,1.61668,-0.29628,3.86424,-24.33775,-231.87238,53.43624
1302,0.67457,-1.97222,1.61489,-29.83091,-351.98947,95.06219
1329,8.17799,-1.56401,7.96072,-16.22008,-315.79565,97.13738
1355,6.46734,-2.68929,8.12951,-13.77868,-222.83919,117.70621
1381,3.78463,-3.80499,4.96438,-35.69028,-228.21028,180.57237
1408,11.79683,-3.64816,4.67588,-59.49397,-256.2254,181.24376
1434,13.55896,-3.40276,8.45153,-39.47446,-214.66048,160.9801
1458,11.19229,-4.59747,10.14543,-24.58189,-160.21716,177.64268
1485,10.53748,-4.5005,9.2907,-24.03258,-113.1591,194.48837
1512,12.77127,-5.52761,7.17303,-24.58189,-112.36564,207.61093
1538,16.19139,-4.40832,7.81108,0.68664,-137.69521,180.2672
1565,17.53813,-3.25073,9.69293,34.80527,-97.47307,146.45375
1591,14.69741,-2.13623,9.20331,66.97078,0.85449,114.47134
1617,13.95879,-2.17932,6.06212,71.91462,33.26413,86.27313
1644,12.95682,-2.3553,2.9317,72.28083,-3.2959,64.84981
1670,11.30841,-3.10708,1.61489,65.01765,-18.92089,44.95236
1697,10.87506,-3.32854,1.83875,53.66512,-6.83593,30.426
1724,11.25813,-3.18249,0.46926,32.79111,21.11815,10.34545
1747,12.60607,-2.76949,-0.4118,11.97814,30.39548,-30.48704
2237,9.58339,-2.32297,4.59447,87.29546,48.21774,-39.82541
2274,2.88082,-3.40994,0.06943,10.39123,81.72601,52.45968
2300,9.50678,-2.96821,3.40455,-18.96666,-43.88425,43.60958
2322,9.30327,-3.31058,10.74518,52.38338,-67.44379,33.59983
2350,7.82724,-4.96138,9.10036,141.86086,-48.70602,38.66574
2390,3.37044,-7.1042,-0.4525,141.79982,-45.8984,114.16618
2424,14.1611,-4.39276,0.6608,82.22955,-95.82512,87.37176
2542,7.79732,-6.53797,-0.77812,-71.51789,72.93696,26.7639
2567,7.3077,-5.9047,1.71664,-61.69124,86.18158,30.426
2594,7.95294,-4.54001,0.60094,-65.29231,64.08687,32.74534
2615,8.60177,-3.33213,0.8272,-71.701,46.26461,32.8674
2637,14.01386,-0.71407,3.75411,-57.60189,40.58835,4.42505
2658,16.1028,0.71646,3.21422,-51.55941,60.42476,-31.64671
2679,15.02421,1.0732,1.1133,-67.18439,107.84904,-60.1501
2700,14.63755,1.68372,-0.23583,-89.40118,99.30413,-81.81757
2724,14.44242,0.96786,8.53174,-13.90075,84.53363,-100.79948
2745,14.01745,1.68612,6.4428,10.08605,38.69626,-113.49479
2768,8.88907,1.11151,-3.85945,-68.46614,-2.19726,-72.60126
2792,8.40425,0.57401,-1.10014,-53.6346,18.85985,-49.28585
2814,11.92013,0.63267,3.77566,-24.58189,7.50732,-71.4416
2835,10.60691,-0.58359,6.5649,-1.02234,23.25438,-67.16914
2856,1.38924,-2.3529,-1.18752,-23.11705,44.18942,-32.92844
2877,1.72682,-1.93152,-1.38744,-22.5067,-6.40869,-2.65503
2899,7.02279,-0.80146,0.06464,-0.71716,-154.84607,-3.87573
2920,8.52276,-1.59753,2.77488,15.45714,-167.84656,0.76294
2942,12.03505,-0.83977,2.07817,-5.35583,-61.09615,-18.40208
2964,10.1149,-1.33896,0.97683,-6.39343,-23.43748,-25.54319
2985,5.63535,-3.80858,-1.27252,-15.30455,-3.2959,15.96068
3008,5.59944,-6.19679,-0.76255,-11.33727,-17.63915,43.85373
3029,9.77253,-6.73429,2.17274,26.80967,-182.92223,42.51096
3052,7.83203,-5.65451,9.37569,69.47321,-167.29723,66.925
3074,9.21109,-3.10348,-3.553,41.33603,-133.36171,54.53487
3097,7.86316,-3.22798,-3.90135,-15.42662,-60.72994,76.69061
3119,10.47284,-3.7559,-4.05578,-65.17023,-57.55611,69.42744
3140,12.26609,-2.22002,1.55384,-76.88898,-49.86568,48.98067
3163,14.11202,-1.29945,6.3997,-5.41687,-45.16598,-5.58471
3185,17.33701,-0.35374,3.46441,22.47618,1.83105,-86.70037
3207,17.88888,0.42078,-1.12049,-5.4779,153.44226,-154.51038
3229,8.99801,-1.64901,-2.8922,-19.88219,164.30652,-111.90788
3250,-4.61183,-3.46261,-3.29442,-22.38463,59.50923,-37.32297
3275,5.4522,-1.15221,-4.32513,-14.5111,52.24605,-67.65742
3298,8.64726,-1.4455,-2.41814,14.78576,34.54588,-67.1081
3320,7.80809,-0.92715,-4.83748,8.31603,-28.5034,-39.94748
3344,4.28383,-0.6195,-5.10085,-24.03258,-46.02047,27.31321
3370,3.06757,-1.58077,-6.32668,-101.05888,-25.81785,115.69205
3398,16.51221,-2.78146,5.26246,-54.55013,-84.10638,113.18961
3424,16.90247,-3.02208,4.86262,31.99766,-123.29092,95.85564
3450,13.98513,-4.42748,2.57736,70.20564,-121.03262,94.45183
3476,6.09504,-7.94217,1.64123,58.18172,-91.06438,118.13346
3501,6.73908,-6.52719,2.37265,22.84239,-11.16943,118.92691
3525,9.48523,-6.50205,2.86107,12.89367,40.40524,90.72869
3550,12.48038,-7.99244,4.42089,49.08749,52.85641,25.7263
3576,10.65599,-7.27658,1.44131,75.57673,36.56003,-22.91868
3601,8.13011,-7.59261,0.59975,90.22515,39.61179,-42.81613
3624,2.86766,-6.88393,-0.27533,83.32819,55.84713,17.30345
3650,-0.68055,-4.4179,-2.10211,53.35994,47.79049,112.76237
3678,6.0711,-3.45663,-3.07775,7.88879,48.88913,181.67101
3704,6.78337,-5.21637,-1.88304,-11.09313,78.85736,202.66708
3728,7.04554,-6.12976,-0.72903,-20.49254,128.53993,202.36191
3753,6.46015,-6.92942,-0.14485,-24.39878,160.15613,193.38974
3778,6.90787,-7.27418,-0.77452,-38.37582,147.33875,167.99915
3805,8.52156,-7.16285,-3.79481,-64.13264,-32.77586,84.25897
3832,6.87315,-8.31566,1.96205,-18.78355,-13.61083,70.77021
3859,8.00561,-8.23905,2.11288,-17.07457,45.04391,65.64326
3887,9.38228,-8.5886,0.9924,-35.62925,60.85201,34.45432
3913,9.75697,-7.51121,0.47166,-35.87339,30.39548,32.13498
3938,5.39593,-4.59627,3.33512,-4.62341,90.27093,36.89573
3964,5.97653,-7.33164,3.23098,21.25548,120.54434,46.60031
3990,5.8209,-11.07378,-0.35793,-14.02282,33.2031,94.87908
4017,7.33763,-13.84986,-0.59735,-51.80355,-10.62011,131.62221
4043,9.21708,-11.974,1.28569,-50.21664,20.38573,44.21994
4067,10.96604,-10.79246,0.87388,-29.4647,6.89697,-89.14178
4093,7.13053,-7.42502,-2.6851,-69.93098,-73.73042,-160.85803
4120,6.66725,-11.11329,-2.00754,-111.49589,-97.22893,-239.16606
4145,3.87322,-14.79557,-1.08936,-133.77371,-89.05022,-223.9073
4184,-1.45508,-13.37222,-0.6201,-68.28303,-168.0907,-49.22482
4228,1.7328,-8.03314,-0.31125,-18.23424,-162.41443,9.49096
4272,5.05835,-7.17961,-2.30083,1.84631,-42.05319,51.17794
4316,3.84569,-5.65331,-2.01233,-12.98522,-76.90424,51.23898
4364,2.40917,-5.13018,0.88585,15.57921,-28.01512,60.39424
4406,1.57957,-7.22151,0.95409,83.02301,-28.62547,85.47968
4432,1.06602,-7.57944,0.32322,126.60208,-73.85249,82.36688
4457,1.02412,-6.38833,-0.73861,153.82375,-114.44083,87.43279
4481,2.29185,-8.41502,-7.7608,73.01325,-341.49146,53.61935
4507,5.84963,-11.38742,-27.61592,-32.02818,-337.76828,12.29858
4533,7.03237,-12.77965,-4.07254,-74.20344,162.90271,-30.30393
4559,3.47937,-8.09899,-3.51708,-66.81819,287.23123,-32.13498
4587,3.5931,-11.9321,-6.99227,-41.67172,-0.79346,-13.76342
4613,-0.52493,-14.07731,0.65721,-11.76452,-193.11508,22.49144
4638,0.22924,-11.95365,4.56574,5.44738,-120.84952,29.51048
4665,2.56,-7.41903,5.85143,115.61576,-43.88425,-18.64623
4691,-0.71766,-9.30925,-2.16556,72.64704,-19.71434,-4.54712
4717,-1.05046,-10.21666,-2.32836,-23.78843,-10.62011,45.50167
4744,0.88286,-10.25736,-1.40899,-54.73323,-46.936,48.18722
4770,4.03363,-9.68395,1.47483,-63.09505,-66.77242,5.52368
4795,3.91153,-10.5291,3.19387,-44.72348,-8.97216,-58.01387
4821,1.11869,-11.87704,4.2138,-10.54381,101.07414,-82.54999
4848,-1.24678,-9.77612,1.61369,41.4581,170.59314,-56.54903
4874,-1.64781,-8.36594,0.03352,78.75055,160.64441,-4.54712
4900,-1.86209,-8.15645,-1.51673,90.16412,110.16837,59.17354
4926,-1.35452,-8.72387,-2.92212,77.59089,48.52291,97.93083
4952,0.70809,-9.43615,-2.80002,66.54353,4.94384,104.09538
4978,1.36769,-10.09455,-2.34273,58.24275,-15.13671,96.03874
5005,1.80822,-11.21624,-1.42694,43.41122,24.71922,91.0949
5032,2.07398,-11.62205,-2.27689,6.11877,60.30269,94.87908
5057,3.60387,-9.80007,-1.74058,-53.26839,143.85976,49.8962
5084,4.84167,-8.02836,1.22942,-86.10529,234.43587,2.83813
5110,-0.05567,-9.43854,-1.96205,-145.30934,247.68047,21.57591
5136,-1.32938,-11.39101,-0.26815,-176.13206,257.56815,79.92548
5162,-0.64224,-13.35905,3.00113,-127.42606,297.17993,143.03578
5189,2.91674,-13.43087,3.00592,-84.94562,317.13843,149.1393
5216,4.71837,-11.61367,2.15837,-39.96274,278.93045,98.41912
5242,3.86125,-10.36031,0.81523,-12.37487,200.68344,79.6203
5269,3.39079,-8.37192,0.4118,8.92638,137.87831,54.04659
5297,2.77907,-8.51079,1.04387,43.89951,143.00526,13.27514
5325,1.97222,-9.39425,3.04542,98.03764,226.5013,1.25122
5351,1.29706,-10.9433,-0.22625,103.71391,271.48416,9.24682
5378,1.17495,-11.54185,-5.69341,26.32139,302.67313,0.39673
5405,-0.82061,-11.13962,-24.83146,-125.10672,196.41098,15.89965
5430,-0.73442,-9.33559,0.35314,-103.56133,193.17612,42.44992
5455,-0.97743,-9.31524,3.73615,-48.44662,242.73665,67.7795
5480,-0.24241,-8.97287,2.79523,-28.12193,256.95779,77.60615
5506,1.43951,-8.98604,-0.13767,-12.86315,259.46027,88.40936
5533,2.70246,-8.60656,-0.84994,-4.50134,254.45537,90.66766
5560,2.85209,-8.28932,-0.81044,15.09093,199.27963,90.17937
5587,3.58951,-8.99202,0.2083,59.40242,144.47011,86.5783
5613,5.77422,-9.02554,-1.16478,53.23788,236.14485,50.20138
5638,7.44896,-8.43777,-4.6256,-2.85339,291.38162,11.19994
5664,1.76153,-9.7881,-5.26844,-45.15072,214.59944,0.94604
5690,0.12869,-10.64163,-3.52067,-22.38463,148.31532,14.06859
5716,0.34417,-11.13483,-2.08056,-18.23424,177.30699,26.21458
5742,1.90159,-10.60571,-0.87149,-9.56725,165.71033,37.26194
5769,3.28425,-8.8783,0.7039,35.7208,72.44868,38.4216
5795,3.95223,-8.72387,1.75495,86.86823,108.58147,44.28098
5821,6.09624,-8.37192,0.60454,92.72759,198.48619,28.59495
5848,7.17722,-7.57825,-7.70095,54.09237,188.78159,10.52856
5874,5.84484,-7.58184,-8.64905,-19.63805,56.64058,-3.50952
5900,3.99532,-8.03913,-5.96396,-36.66684,-6.59179,-5.70678
5926,1.83575,-10.04188,-1.07619,-33.18784,-13.36669,0.76294
5952,2.23319,-12.05301,-0.04788,-26.22984,5.55419,6.37817
5977,3.11426,-14.18026,0.80924,0.62561,19.4702,-6.68334
6005,0.92596,-10.24658,-0.07781,10.02502,-5.18798,-0.94604
6031,0.79308,-8.01279,-0.92177,-12.55797,-46.14254,-3.69262
6058,1.25277,-6.8145,-0.65003,-15.48766,-52.18502,-24.81077
6085,-0.21368,-9.89703,0.86191,9.78088,-38.20798,-30.30393
6112,-1.04088,-11.30722,-0.95529,-13.83971,-56.76265,-6.19506
6138,0.34776,-10.76732,-0.84396,-32.21128,-51.26949,-28.04563
6165,-0.02813,-10.84753,1.75375,-22.81187,-11.16943,-41.35129
6192,-1.20608,-10.899,1.84473,-7.12585,57.67818,-9.79614
6217,-0.68175,-10.77092,0.89064,-10.05553,96.19134,1.5564
6244,-0.27593,-10.67874,0.50637,-9.20104,126.64785,12.29858
6270,-0.30466,-9.99639,0.31843,-2.36511,145.08046,34.75949
6298,0.00778,-9.46488,-0.23583,-2.73132,135.80312,52.45968
6325,0.70809,-9.71028,-0.81762,-5.2948,114.25773,70.28193
6352,1.16059,-9.97963,-0.11133,12.58849,104.79729,88.77557
6378,1.68612,-9.88267,0.0395,22.65928,97.83929,97.32048
6405,1.74717,-9.97724,-0.87269,21.80479,78.43012,110.25993
6429,2.05482,-10.89541,-0.10774,36.81943,74.34076,129.73013
6456,3.01969,-11.51791,0.0838,58.24275,70.25141,129.73013
6482,4.44065,-11.04984,-1.39462,63.67488,49.43844,116.4855
6509,4.92667,-10.46805,-1.97522,56.10653,42.11423,98.48016
6536,7.50403,-10.33756,-2.16795,9.53674,155.9447,31.64671
6562,9.79528,-6.6074,-8.27316,-48.50766,43.6401,-69.79365
6590,6.94737,-5.70957,-4.60285,-76.76691,-21.97264,-161.34633
6615,4.62979,-7.61895,-1.81002,-96.23711,-10.74218,-227.81355
6638,2.82935,-11.4784,-1.52391,-100.5706,-11.65771,-231.90289
6664,0.32262,-17.41722,0.59496,-48.50766,-40.03903,-210.23544
6691,-0.68893,-18.10316,-0.16041,-21.04185,-65.18549,-162.0177
6716,-0.67816,-17.01978,-0.51475,-3.28064,-44.79977,-152.4352
6741,-1.26713,-11.0654,0.80445,23.45274,-6.04248,-146.39272
6768,-2.13503,-8.65444,-0.04429,33.6456,-21.78954,-114.53238
6794,-2.6031,-6.93421,-0.69671,32.97422,-57.67818,-81.75653
6822,-4.0899,-8.03793,-1.63644,25.83311,-73.97456,-33.78294
6848,-3.30819,-8.61015,-1.6532,14.66368,-53.52779,13.09203
6874,-2.02968,-7.95294,-1.50476,8.255,-34.79001,37.07883
6902,-1.02891,-8.6724,-0.48483,6.97326,-42.78561,64.6667
6930,-0.2484,-9.44572,-0.83558,6.60705,-35.6445,88.34832
6956,1.2803,-9.25778,-0.53391,19.60753,-0.61035,92.07146
6982,5.67246,-9.92337,-2.00275,15.213,93.32269,88.28728
7008,9.88147,-11.0259,-3.78044,2.27356,224.67024,30.85325
7033,12.41693,-10.92774,-2.24097,58.24275,95.2758,-25.78733
7059,4.53522,-7.14011,-2.86586,35.41562,-77.45355,-21.75902
7085,4.13778,-8.46889,-1.90459,-27.63365,-24.78025,9.12475
7112,6.63014,-15.07569,-3.89537,-82.07697,109.98528,-10.58959
7138,1.39881,-10.77331,2.66834,27.66416,-18.00536,-49.40792
7164,-1.48261,-6.48888,-1.20428,44.08261,-97.10686,-31.28049
7190,-2.16017,-6.10222,-2.48877,-14.6942,-121.33781,2.71606
7216,-1.88603,-8.29411,-1.53708,-68.52717,-106.87248,32.13498
7242,-0.50218,-12.79761,4.10366,-48.01937,-35.76657,26.70286
7268,0.4962,-10.94809,4.03662,14.78576,-6.34765,-8.45336
7294,-0.77512,-8.89865,2.58574,55.191,-3.66211,4.11987
7321,-1.75435,-9.14884,-0.06704,60.86726,-3.84521,44.52511
7347,-0.36931,-9.91259,-0.91099,40.90878,-7.44628,59.66182
7373,0.89244,-10.29567,-0.73981,44.02157,12.63427,52.88692
7400,0.94032,-10.88225,1.08697,79.78815,66.77242,63.93428
7426,1.39881,-10.22145,-1.38026,59.34139,78.24701,75.28681
7452,1.86329,-9.48283,-1.98719,41.82431,86.60882,85.05242
7480,3.06518,-9.77732,-1.34434,37.9791,92.40716,90.66766
7506,3.33931,-9.80845,-1.60771,30.34971,61.82857,82.00067
7532,3.40635,-9.42058,-1.7765,27.48106,8.05663,70.52607
7559,2.73957,-9.09378,-1.32758,26.74864,-48.76705,65.09394
7585,2.83653,-9.11413,-0.72784,30.65488,-68.23725,59.47871
7611,3.09271,-9.19194,-0.75417,19.54649,-57.73922,52.03243
7637,3.77386,-9.92456,-0.24181,8.49914,-26.36717,39.58127
7662,4.39994,-10.34594,-1.43532,-22.93394,-8.85009,15.59447
7689,5.2008,-11.70825,-1.72742,-62.05745,21.97264,-38.60471
7714,5.99807,-12.3882,-0.67157,-86.77666,87.03607,-120.14762
7739,3.222,-11.65916,-1.42814,-104.65996,168.02966,-172.14954
7766,1.30185,-11.90217,-2.08176,-107.3455,181.82359,-185.39415
7793,-0.76315,-12.78564,-1.62925,-37.09409,61.52339,-146.20961
7820,-3.13102,-13.42489,-4.72735,-47.7142,-24.10887,-100.92155
7846,-1.40719,-12.70543,-4.89854,-84.33526,-38.26901,-89.32488
7872,-0.41001,-11.48439,-2.50194,-79.63556,-60.54683,-79.68134
7898,0.86012,-8.10138,3.20464,-29.95298,-94.84856,-76.75165
7925,0.64224,-7.34601,4.05937,26.32139,-69.09175,-66.61982
7951,0.50458,-7.11257,1.85192,26.6876,-22.46092,-49.65207
7977,0.20889,-6.93899,-0.45969,16.49474,-4.94384,-35.9802
8002,-0.58359,-7.01322,-1.00916,10.45226,-32.53171,-16.26586
8030,-1.63823,-7.3101,-0.56144,17.16612,-58.59371,16.57103
8057,-1.92195,-8.26897,0.50039,29.9835,-61.7065,52.88692
8084,-0.744,-8.47128,-0.22745,38.77255,-39.36765,79.19306
8110,0.66858,-9.38348,-1.816,34.62217,6.7749,93.65837
8138,10.16758,-11.74655,-12.73835,-22.75084,59.32613,50.75069
8164,11.16716,-11.73937,-3.51589,66.97078,-26.2451,-10.9558
8191,9.81922,-9.53551,-1.18752,39.13876,9.64355,-29.44944
8217,5.30615,-11.48199,-5.17626,-65.71955,121.45988,-28.59495
8242,4.14736,-19.91078,-5.76643,-38.19272,84.10638,-17.18138
8269,3.52367,-19.49778,-3.60447,-1.20544,-88.62298,-52.76485
8295,-0.67816,-4.68485,1.50835,-8.46862,-156.43298,-45.25753
8322,-1.37128,-2.58155,3.24175,8.19396,-126.83096,-22.73558
8349,-1.79625,-2.19728,3.1376,4.59289,-82.51947,14.2517
8376,-2.99215,-12.29722,1.65559,-35.81235,-30.15134,77.97235
8401,-1.06961,-15.91605,2.36068,-57.54086,26.36717,74.9206
8425,2.65337,-13.69184,3.16633,-5.41687,39.79489,-27.43528
8449,2.0213,-10.72423,3.26449,96.75591,6.958,-35.30882
8475,-1.74956,-9.35594,0.35434,123.79446,0.79346,6.98852
8501,-1.80463,-9.13687,-1.55144,90.46929,-2.50244,51.66622
8527,-0.62189,-8.54431,-2.33435,53.78719,-17.57811,66.37568
8553,0.43874,-10.49319,1.09894,75.51569,12.08495,82.30585
8579,1.57239,-11.44249,-0.08978,86.01373,60.18062,95.06219
8605,2.87244,-11.13962,-3.1783,51.40682,63.04927,86.27313
8631,3.47459,-8.93576,-2.24456,20.52306,78.18597,67.71846
8658,2.7683,-8.69754,-1.48441,18.08165,65.85688,65.09394
8691,2.40557,-9.42657,-0.74699,31.63145,31.79929,67.65742
8718,2.8916,-9.87668,-1.2809,35.84287,-17.63915,59.53975
8745,2.81019,-9.13568,-1.58376,22.90343,-31.73826,58.56319
8772,3.7595,-9.38108,-0.71706,20.40099,-16.35741,53.43624
8797,4.97934,-10.12089,-1.30604,-2.48718,17.39501,19.989
8822,5.18764,-9.5798,-3.12204,-42.64828,-1.52588,-3.69262
8850,4.35805,-11.1899,-0.85832,-59.67708,-18.37157,-24.87181
8876,4.72915,-11.60649,-1.83875,-83.48077,-45.83737,-64.91084
8902,5.42586,-12.13681,-0.36631,-94.28399,3.78418,-134.18568
8929,3.98575,-12.23497,-0.8272,-120.71219,68.23725,-183.7462
8955,-0.01616,-14.50108,0.03831,-106.91826,114.01359,-180.14513
8982,-1.51613,-14.91528,1.16119,-42.52621,124.69473,-146.51479
9008,-3.19925,-12.23018,-4.16471,-2.30408,38.39109,-88.71453
9034,-1.10792,-9.80485,-4.93445,-34.71372,-17.2119,-64.05635
9061,0.2496,-8.18637,-2.41814,-45.02865,-76.47699,-60.69942
9088,0.6626,-7.20954,2.17154,-12.37487,-126.15958,-55.08419
9113,0.97624,-7.02399,1.64482,2.5177,-115.23429,-46.84444
9138,1.25396,-7.16046,1.06662,4.04358,-48.88913,-37.87228
9164,0.98222,-7.65366,-0.03232,2.15149,-20.99608,-25.11595
9189,-0.85892,-7.86076,-0.4956,11.18468,-49.3774,-6.68334
9214,-1.62985,-7.52797,0.23822,22.04893,-60.42476,18.7683
9241,-1.85491,-7.32566,0.82241,33.40147,-42.29733,44.40304
9269,-1.47543,-8.6281,-1.33956,41.03085,-27.16063,76.26337
9295,1.59753,-11.03667,-6.93361,2.09045,20.93504,89.63006
9321,8.73584,-12.34989,-16.75462,2.02942,-6.65283,48.85861
9349,10.04906,-9.41699,-0.58658,63.49177,-1.52588,-25.48216
9377,7.37474,-7.23827,-0.97324,16.86095,40.03903,-52.94796
9403,5.78499,-6.59303,-4.15993,-40.51205,115.84464,-4.85229
9428,2.5588,-18.8705,-3.97797,8.49914,69.09175,20.29417
9454,1.57718,-17.54531,-8.30549,-11.58141,-127.31924,-34.57639
9481,0.05686,-11.26412,-2.05303,-36.84995,-135.37589,-27.92356
9505,-1.19052,-4.3772,3.65235,-20.79771,-86.54778,-5.15747
9530,-1.42635,-5.11461,3.23576,-7.91931,-45.16598,14.4348
9556,-1.42994,-9.27334,2.58933,-13.65661,-12.63427,45.1965
9582,-0.71886,-12.37264,2.09612,-19.57701,5.98144,36.1633
9609,1.13665,-9.70789,2.21344,7.52258,10.55907,-4.05884
9636,-0.10594,-8.86992,1.60651,53.66512,-5.37109,2.83813
9662,-0.77393,-8.78373,1.04267,84.54889,-4.57763,34.02707
9688,0.73442,-9.0004,-0.28611,96.5728,1.52588,44.21994
9713,1.03729,-9.31165,-0.50518,103.83598,9.46044,48.37032
9739,1.10792,-10.09695,-0.05507,114.45609,38.45212,57.7087
9766,2.38403,-10.60452,-1.61968,99.56352,89.47747,60.76046
9794,3.51409,-9.69951,-3.93128,38.65048,160.88855,45.68478
9820,3.62781,-9.09976,-5.50547,-16.70836,127.56339,35.06467
9846,1.72921,-10.49678,-0.9481,-5.84411,58.89888,44.46408
9872,1.7352,-10.56262,-0.51715,21.86583,-0.42725,50.44552
9899,1.69928,-9.91858,-1.05824,26.38243,-33.50828,59.11251
9926,1.78667,-8.95252,-1.34434,14.72472,-36.74314,69.85469
9952,2.08236,-9.23503,-1.30723,-0.41199,-57.00679,80.41376
9980,2.66295,-10.59374,0.81163,33.88975,-16.84569,82.73309
10007,4.68605,-10.93731,-2.00036,14.35851,-22.15574,46.96652
10035,3.82294,-11.00794,-1.05943,-2.67029,-9.15527,33.41673
10062,4.96378,-11.15399,0.6201,-23.42222,-13.54979,-23.40697
10090,5.5743,-9.11293,-1.47722,-58.02913,25.45164,-89.26385
10117,4.42748,-7.93019,-1.18872,-101.6082,153.13708,-151.58069
10142,2.03567,-12.34391,-3.02029,-154.4646,172.30212,-197.35703
10166,0.07961,-16.27399,-0.48004,-118.57597,181.76256,-183.86827
10192,-1.69569,-18.63108,2.03268,3.61633,116.21085,-145.90443
10220,-2.72281,-17.64347,-2.66953,10.63537,27.09959,-97.93083
10247,0.49141,-10.06223,-4.35864,-38.13169,-1.89209,-97.99187
10272,0.60633,-8.0523,-1.40659,-38.00962,-72.50971,-98.41912
10297,0.40881,-6.88393,0.9481,-14.14489,-109.49699,-85.41864
10321,-0.77512,-7.25503,0.63925,-6.02722,-96.49651,-60.51631
10347,-1.01694,-7.46572,-0.23583,-14.87731,-50.47604,-35.43088
10372,-0.96067,-7.267,-0.74579,-18.41734,-31.49412,-17.24242
10397,-1.24319,-7.11856,-0.01317,-4.19616,-32.77586,8.57543
10422,-2.68929,-6.83485,1.07021,12.28332,-17.57811,45.31857
10449,-2.32776,-6.59423,0.81044,31.32627,-8.42284,79.92548
10473,-1.78308,-7.2682,-0.02514,44.63193,-8.17871,121.97867
10498,-0.6626,-9.20511,-1.59574,42.92294,4.5166,138.76332
10523,12.70064,-14.13597,-13.90313,-11.88659,32.40965,83.46552
10548,15.80472,-12.60966,-0.77812,70.87702,10.437,-23.40697
10577,13.11244,-8.52755,-0.06345,30.28868,22.7661,-83.40448
10602,3.32614,-9.75218,-3.81277,-73.65411,101.8676,-11.32201
10626,2.72759,-19.54926,-1.01155,25.52794,103.82072,29.87669
10653,1.88484,-20.61827,-9.25119,16.37267,-106.3842,-28.35081
10681,-0.10834,-7.3077,0.88226,-40.45102,-217.89534,-41.9006
10705,-0.78111,-4.7088,2.81438,-39.29135,-166.50378,-16.75414
10728,-1.57359,-4.17249,3.24893,-23.11705,-110.22941,17.54759
10753,-1.84174,-7.12335,3.48835,-15.79284,-67.74898,41.59543
10779,-1.13306,-11.23778,3.43688,-12.80211,-16.78465,40.74094
10804,1.87286,-10.5722,3.32914,9.10949,43.27389,-38.72678
10828,0.16221,-8.99681,2.89459,38.89463,77.33148,-55.51143
10854,-1.77231,-9.1668,2.3942,57.38826,105.83488,-24.62767
10881,-1.00377,-9.52952,0.22386,57.4493,144.47011,24.81077
10906,0.07602,-9.36432,-0.60094,44.57089,152.70985,38.4216
10929,-0.07242,-10.04906,-1.08338,36.27011,133.6669,66.86397
10955,-0.17538,-10.95647,-1.12408,58.05965,93.74993,110.13786
10981,1.84892,-11.10131,-1.44969,71.12116,64.51411,132.65982
11006,2.73957,-10.63564,-2.32238,38.28427,52.4902,133.75845
11032,3.31537,-10.59494,-1.89022,25.22276,67.01656,134.30775
11058,4.07553,-10.30045,-0.89902,14.54161,91.91888,123.13834
11085,3.85526,-9.74021,-1.20668,2.27356,76.78217,108.97819
11112,3.37283,-9.65402,-1.03549,5.75256,41.74802,106.59782
11139,3.69246,-9.31404,-2.00275,-5.17273,-31.49412,95.7946
11164,3.78224,-9.38228,-0.87987,2.76184,-82.76361,86.15106
11190,4.51487,-10.04308,0.72664,34.13388,-75.25629,63.07979
11217,5.72873,-10.48122,0.18794,27.05381,-80.26117,9.42992
11243,4.09708,-9.64923,-1.23182,-14.5111,-32.83689,-26.45872
11270,4.75189,-10.80084,-0.62968,-56.07601,57.92232,-71.86884
11294,4.40832,-10.93731,-3.6763,-130.90506,91.91888,-137.11537
11319,2.98138,-10.07899,-1.87227,-152.08424,117.98087,-182.34239
11345,2.33973,-12.11406,-0.80325,-136.82547,151.4281,-224.39558
11372,0.81942,-15.65987,1.61609,-37.33823,188.23228,-199.37119
11398,-2.13623,-16.94077,-0.61052,44.99814,104.30901,-128.32632
11424,-0.75597,-12.74254,-3.18309,49.02645,4.57763,-104.21745
11450,-0.38966,-9.62768,-5.10803,1.66321,-22.03367,-91.27801
11477,0.13587,-7.83084,-2.85987,-40.38998,-91.36956,-75.95819
11503,0.60513,-7.86076,-0.14724,-29.09849,-163.81824,-68.20673
11529,1.00377,-7.86316,1.9405,1.60217,-190.61266,-68.08466
11556,0.83737,-7.90745,2.38822,22.10997,-135.92519,-56.73214
11582,-1.37487,-8.65683,2.08655,31.50938,-61.64546,-24.56663
11609,-2.19249,-8.61853,1.23541,36.08701,-28.01512,8.6975
11634,-2.22721,-8.48804,0.22505,35.04941,-25.63475,33.7219
11661,-2.49895,-8.13131,-0.72544,37.73496,-24.29198,63.38496
11688,-2.67372,-8.31686,-1.78967,37.30771,-27.34373,94.14666
11715,-2.0632,-9.74979,-3.37702,30.34971,-2.50244,117.09586
11741,8.40305,-12.04583,-9.76475,15.64025,85.02191,79.2541
11767,11.24856,-11.21145,-0.95409,50.55233,84.41155,0.57983
11794,11.41256,-9.14525,0.62608,41.03085,5.00488,-57.09835
11821,6.35601,-9.78091,-4.6675,-69.32063,94.05511,-0.82397
11847,5.31453,-16.24406,-1.93571,-40.63412,162.17029,26.58079
11874,4.65373,-17.60038,-2.00634,40.54257,11.90185,-43.42648
11901,-0.61112,-8.82922,-4.48554,-27.14537,-225.40266,-37.93332
11927,-0.26755,-5.30376,0.88585,-33.12681,-232.29962,-15.89965
11953,-0.52014,-5.19242,2.16196,-23.91051,-177.42906,4.42505
11978,-1.05165,-9.90182,1.70228,-37.21616,-134.2162,32.92844
12004,-0.30227,-13.55178,2.47082,-35.99546,-87.95159,30.85325
12031,1.87167,-12.93647,3.81516,-4.50134,-27.52683,-39.33713
12058,-0.29509,-9.59776,3.11725,36.45322,16.78465,-64.11739
12084,-1.74118,-9.3727,2.11767,67.09284,67.81001,-25.97044
12109,-1.84174,-9.07941,0.99718,66.29939,103.51555,15.4724
12134,-0.2472,-9.00878,-0.72065,59.40242,108.27628,39.09299
12159,-0.10475,-10.24658,0.04908,82.71783,109.55802,69.91573
12185,0.54887,-11.35151,-0.31364,97.67144,101.07414,98.78532
12212,4.01208,-9.92456,-5.77003,51.83407,64.81929,88.53143
12238,4.16292,-9.04829,-5.51863,0.01526,30.33445,69.48847
12264,3.02448,-8.7526,-3.39019,-27.99986,2.86865,69.00019
12289,2.22481,-9.09138,-1.07141,-11.0321,-14.22118,79.55927
12314,2.9718,-10.0754,0.05028,13.25988,-29.23582,75.53095
12340,3.15975,-10.14723,-0.29449,26.56553,-57.12886,60.51631
12365,2.79822,-9.66479,-0.1652,34.62217,-71.53315,54.53487
12391,2.6821,-9.29968,-0.72903,29.25108,-79.34564,48.73653
12418,3.63859,-10.46326,0.54468,34.92735,-33.56931,29.63255
12444,3.73675,-11.12645,-0.54827,12.9547,3.84521,13.64135
12471,3.6326,-11.48678,-0.92775,-0.65613,45.59323,5.27954
12498,4.30537,-10.77929,-2.16436,-30.99058,30.70066,-24.99388
12524,4.953,-10.26215,-2.62285,-63.46125,22.64403,-79.98651
12549,4.55437,-8.755,-0.79368,-83.11456,153.68642,-152.00795
12575,1.64781,-9.85992,-2.9317,-106.30791,195.00717,-183.80724
12601,-0.63985,-12.33433,-2.78924,-90.68292,159.17957,-170.31847
12629,-3.05799,-14.58727,-2.21703,-29.4647,32.95896,-111.23649
12654,-1.29586,-12.46721,-2.81558,-39.35239,-45.65426,-71.01435
12679,0.70449,-11.39939,-0.84994,-38.25375,-59.4482,-62.77461
12707,1.54246,-10.62367,0.89663,-7.06481,-47.11911,-62.95772
12733,2.08954,-8.55867,1.15879,21.07237,-46.56979,-65.03291
12760,1.92314,-7.83084,0.16879,22.90343,5.31005,-59.72285
12786,0.62668,-7.70753,-1.5287,6.79016,27.16063,-44.40304
12813,-1.96744,-8.15166,-3.3016,-1.63269,-20.08055,-18.34105
12838,-2.49057,-8.1756,-2.17513,0.99182,-69.64106,17.7307
12865,-2.37206,-7.86076,-0.50159,3.18908,-43.57907,59.17354
12891,-1.40599,-8.10976,0.67397,-2.67029,6.04248,84.38103
12918,-1.02292,-9.01836,0.39025,-3.95202,41.80905,105.80437
12944,-0.87807,-10.79366,-0.46926,26.5045,17.51708,119.04898
12970,6.77739,-11.89619,-5.46716,100.35698,12.39013,112.15202
12996,9.909,-11.34073,-2.98437,78.93365,90.45403,60.94356
13022,9.83478,-9.34277,-2.57137,23.2086,43.457,-1.5564
13050,10.36151,-12.02907,-4.46519,-83.1756,207.39731,-23.52904
13077,9.14286,-15.88852,-2.59172,-26.84019,269.47,-49.34689
13103,4.31615,-13.91211,-8.78074,-17.25768,-39.67282,-79.19306
13130,-0.72365,-5.96336,-2.55701,-76.70587,-203.7352,-52.27657
13157,-0.44951,-4.71478,3.25492,-64.49886,-197.93686,-11.01684
13184,-0.81223,-5.86759,3.89776,-57.60189,-164.00134,22.97972
13209,0.84096,-13.50031,2.88501,-49.48421,-153.68642,32.25706
13234,2.7264,-13.64875,3.71101,-23.60533,-102.35588,-30.18186
13262,2.90477,-12.0997,3.93367,8.13293,-27.6489,-97.6867
13288,-2.06201,-10.74578,2.77368,39.62705,54.62643,-79.37616
13316,-2.61986,-10.31602,1.78967,53.78719,104.98039,-33.05051
13342,-1.96145,-10.04547,0.81283,65.20076,121.39884,-3.75366
13368,-2.29065,-11.18032,-2.84311,102.61528,31.43308,23.34593
13394,-2.40198,-10.78049,-7.69018,61.05037,-50.53707,70.46503
13420,-0.07242,-9.68754,-6.74207,-8.7738,-9.88769,85.11346
13447,2.23918,-9.0028,-1.23421,-70.96857,86.60882,67.41328
13473,1.56162,-9.84556,0.50637,-76.5838,109.80216,71.92988
13500,1.25995,-10.7362,2.67911,-17.44078,150.02429,94.2077
13526,2.0644,-10.70029,1.99078,0.01526,141.72353,85.47968
13552,2.76111,-10.1592,-0.31125,9.84191,98.75481,73.6999
13579,2.74435,-9.88027,-0.44772,10.39123,72.14349,71.19746
13605,3.2615,-9.57381,-0.93254,-10.48278,58.4106,56.24385
13632,4.61782,-9.1249,-1.0726,-34.89682,59.87545,33.66086
13658,4.461,-9.22546,0.00479,-37.52133,57.49508,20.84349
13684,3.66492,-9.35235,1.47124,-8.83483,48.58395,20.96556
13710,3.97378,-9.30207,0.81642,8.68224,61.03511,-1.37329
13737,2.60669,-9.22306,0.01915,15.70128,112.91496,-14.37377
13763,1.21206,-9.32482,-1.58137,4.9591,139.70938,-18.82933
13789,-0.90202,-10.09336,-5.2014,-16.22008,95.39788,-22.2473
13815,-2.00933,-10.50396,-4.77883,-37.82651,-2.13623,-6.68334
13843,-1.72203,-10.3232,-1.90938,-22.87291,-10.49804,5.70678
13869,-1.21925,-10.02273,1.25217,25.10069,32.34861,16.44896
13895,-1.91476,-9.83837,-1.55384,27.66416,38.87937,28.41184
13922,-2.04166,-9.50438,-3.64398,-5.59997,35.4614,34.9426
13948,-0.66738,-9.73901,-0.69552,-26.65708,67.13862,32.92844
13975,-0.48064,-10.15561,0.66679,-3.64685,116.08878,21.45384
14002,-0.85413,-10.53509,0.26576,23.69688,121.1547,21.33177
14028,-2.09433,-10.28729,-2.85628,22.72032,107.17766,38.54367
14056,-0.42078,-9.41221,-2.83952,-4.92859,112.97599,43.48752
14082,1.67295,-9.71627,-1.27611,-13.83971,138.67177,26.09251
14110,1.49099,-9.909,-1.09415,-11.94762,161.55994,15.77758
14136,0.95948,-9.84316,-1.6508,-12.00866,153.07605,10.7727
14162,0.21488,-9.67916,-2.24456,-15.18248,136.4745,12.29858
14186,-0.64224,-10.00357,-2.24456,-21.28599,127.0751,16.20482
14212,-0.85293,-10.17236,-1.59214,-22.20152,134.88759,25.84837
14239,-0.85533,-9.81683,-1.40899,-19.82115,133.1786,35.30882
14265,-0.03651,-9.46129,-1.97641,-23.54429,120.84952,38.4216
14292,0.13827,-9.6636,-1.64003,-26.22984,109.19182,36.28537
14317,-0.03531,-9.39425,-1.28808,-18.35631,104.1259,38.36057
14342,0.03412,-8.78014,-1.62087,-14.81627,104.98039,42.9382
14369,0.57162,-8.85196,-1.98479,-15.67076,114.86807,34.75949
14395,0.85653,-9.44333,-1.98,-17.9901,141.78456,22.55247
14423,1.60232,-9.6205,-1.27252,-23.23912,176.20836,19.43968
14450,2.13383,-8.73465,-1.20189,-22.38463,174.49937,13.031
14477,2.13383,-8.3396,-1.31322,-2.48718,163.63513,12.96996
14503,2.54923,-8.68317,-1.95127,24.85655,148.98671,15.2893
14530,2.82336,-8.73345,-2.55102,40.96982,103.51555,7.4768
14557,2.58634,-8.59339,-2.77009,41.70224,71.1059,3.69262
14582,2.33973,-8.37552,-3.03345,43.83847,62.01167,3.63159
14609,2.21524,-9.48762,-3.76728,46.58505,48.58395,6.13403
14636,1.77949,-11.43531,-5.02304,29.73936,9.09423,0.94604
14662,0.84216,-11.48319,-5.87298,16.2506,-14.34325,-24.44456
14688,-0.76794,-9.72704,-4.27604,6.97326,42.05319,-19.74486
14714,-0.59556,-8.67359,-2.53307,-24.58189,113.3422,-4.97436
14743,0.23643,-8.10377,0.62608,-38.74203,90.14886,0.57983
14770,0.15024,-8.37192,0.36272,-35.62925,50.04879,12.60375
14794,0.71527,-9.22306,0.86072,6.36291,54.68746,0.5188
14820,0.48303,-11.58614,0.39025,37.12461,89.41644,2.10571
14846,0.67696,-11.22222,-1.87825,-4.62341,90.5761,17.48656
14872,1.33297,-10.12209,-1.69749,-32.02818,71.04487,14.49584
14899,1.11989,-9.52114,0.02035,-25.92466,44.79977,18.46312
14925,1.31023,-10.06343,0.20949,-11.2152,26.73338,23.59007
14951,1.44789,-10.58297,0.35674,3.12805,23.01024,26.82493
14977,1.85251,-10.36629,0.13168,6.97326,18.98192,20.96556
15003,1.58556,-9.74979,-0.13288,5.56945,21.24022,19.80589
