timestamp,ax,ay,az,wx,wy,wz
26,-2.04285,2.95863,4.60405,-36.72788,-2.2583,8.02612
49,-0.52852,3.77386,5.37738,-48.75179,-31.73826,-3.50952
72,2.00933,4.41192,13.64815,-1.08337,-14.83153,-33.47776
97,0.80146,3.73914,13.30697,29.9835,36.62107,-46.96652
120,-0.80026,2.57796,10.78468,15.09093,84.28949,-32.01292
145,-1.62985,2.16615,8.07085,-17.31871,101.01311,-15.65551
171,-0.44712,3.36924,9.24401,-24.03258,32.83689,-10.16235
195,-0.37769,3.08433,12.48696,38.83359,-7.08007,-13.27514
219,-2.31938,3.52008,8.3402,8.31603,-63.41548,11.68822
243,-3.68528,2.67492,6.43801,-47.7142,-45.83737,42.32785
267,-2.36727,1.55324,5.71496,-109.54276,-32.53171,69.06123
294,0.35614,2.08954,8.38449,-126.08328,-40.40524,89.08074
319,0.91997,2.6857,11.36408,-75.05792,-44.73874,91.94939
343,1.41078,2.79703,11.84292,4.9591,-35.03415,73.33369
366,3.18608,2.29784,9.9108,49.2706,-80.56635,-33.7219
390,-0.61471,2.12904,10.41478,76.06501,-65.12446,-20.84349
417,-0.1251,1.32699,7.8458,55.191,-58.04439,1.7395
442,-0.11552,2.81738,5.36301,-15.5487,-35.27829,13.39721
466,1.95187,3.24714,8.27197,-20.37047,-43.33493,15.04515
491,2.58035,2.08355,9.44872,35.53769,-113.28117,30.60911
515,3.91272,3.48416,7.44716,27.05381,-146.30116,-6.07299
539,2.8916,2.24756,7.78834,10.20812,-98.69377,9.00268
564,0.89483,1.05764,4.78721,-24.64293,-82.33636,53.3752
589,2.01293,-0.57162,5.9879,-52.96321,-39.30661,115.02068
615,2.78386,-0.25319,5.369,-22.99498,-126.95303,125.57973
639,7.45495,0.82899,6.80193,20.64513,-168.45691,86.76141
663,10.33397,2.809,6.51103,-15.24352,-117.18742,51.54415
688,4.8309,0.30825,5.89692,-55.7098,-66.03999,63.87325
712,3.49853,-1.01694,7.434,-60.34846,-62.98824,92.43768
746,6.22911,-0.45909,10.13705,-29.4647,-42.96872,89.99628
771,6.38833,-0.23643,12.05361,0.86975,-11.04736,83.83173
797,3.88758,-1.03489,9.17937,10.57433,-32.77586,109.16129
823,3.15975,-1.57718,8.04571,46.09677,-121.76505,136.44398
850,6.25904,-1.08038,9.68574,81.68024,-135.00966,134.18568
877,4.63936,-1.86568,7.86735,104.87358,-154.84607,155.30385
904,4.61782,-2.4343,6.87495,123.24515,-174.25525,181.67101
931,7.87393,-2.38881,6.64511,148.63574,-195.5565,191.07042
959,9.89943,-1.99138,7.13113,196.91454,-207.33627,169.95227
985,9.09378,-3.2208,6.04656,212.72263,-178.16148,170.92883
1011,12.6779,-2.10989,3.41174,208.26706,-126.70889,143.03578
1037,13.43327,-1.39043,1.38026,167.12939,-74.58491,100.00603
1063,13.29321,-1.4467,0.46208,146.74367,-69.27485,66.98604
1089,13.4213,-0.4974,-0.4968,123.73343,-76.17182,26.947
1115,12.16554,-0.46388,-1.10732,70.87702,-24.41405,4.66919
1141,11.69508,0.52134,-1.36829,34.01181,-7.32421,-12.72582
1168,11.69508,1.34015,2.84431,36.57529,-21.17918,-37.32297
1195,10.55304,0.93673,2.75932,49.39266,-41.74802,-44.21994
1221,9.64684,1.157,0.27054,12.10021,-30.39548,-42.44992
1247,8.33601,-0.46866,-0.60214,-14.93834,-17.39501,-37.32297
1274,7.62134,-2.37804,0.2897,-23.05601,-13.7329,-12.11547
1300,5.12419,-3.94744,1.7322,-17.56285,-20.32469,29.3884
1326,9.40981,-5.13856,2.19309,37.06357,-117.37051,35.06467
1352,11.06061,-4.39276,1.35991,41.09189,-128.72304,19.07347
1380,10.17835,-4.69084,0.14844,-15.12145,-40.89352,34.08811
1402,7.51001,-4.0456,-0.98761,-77.07209,14.22118,71.50263
1452,14.58727,-0.57042,5.06254,-81.34454,41.50388,2.47192
1480,11.88901,-2.24037,9.08001,-21.83531,66.52827,2.22778
1503,7.42981,-2.49296,5.53061,-10.66589,52.12399,37.07883
1525,7.74345,-0.80505,-2.78206,-24.58189,-3.11279,73.883
1547,9.75937,-0.52014,-3.51828,-46.55453,-53.40572,79.68134
1591,7.39988,-4.55078,-0.1652,-92.69707,-41.38181,108.85612
1635,8.32524,-7.28735,4.04141,-58.82259,1.28174,116.18033
1656,8.95611,-7.23468,2.90417,-59.43294,41.38181,99.33465
1679,10.64522,-7.06589,0.23224,-65.96369,56.57955,59.53975
1703,13.9971,-5.66528,0.80565,-39.16928,54.99264,-3.9978
1725,9.61571,-6.61817,1.87825,-22.26256,43.82321,-17.60863
1748,8.73824,-6.7702,0.87149,-12.37487,20.32469,-28.28977
1771,7.99364,-5.55515,0.11612,-14.6942,8.36181,-29.2053
1793,5.87836,-3.87801,-1.08098,-49.36214,-0.61035,9.67406
1815,7.61416,-2.89998,-1.92973,-92.69707,-12.5122,17.79173
1837,9.81443,-4.75668,-0.61292,-132.9192,5.49316,39.58127
1858,8.44016,-6.42544,0.5782,-134.26198,5.00488,66.07051
1880,6.63852,-5.73471,0.43574,-118.75906,-43.6401,86.5783
1902,7.46333,-4.63817,-0.3316,-80.67316,-77.6977,79.31512
1923,7.53874,-5.23313,0.69432,-37.94858,-64.331,76.50751
1945,6.86717,-5.58029,1.09894,-3.0365,-30.15134,87.67694
1967,5.81971,-5.83766,0.99838,24.55137,4.33349,113.79996
1989,5.56472,-5.69281,0.51236,37.73496,15.80809,132.78188
2011,5.92864,-5.11701,-0.11253,44.44882,13.48876,142.3644
2033,6.27101,-5.15412,-0.22266,48.96542,4.6997,138.58022
2056,5.77062,-6.0711,0.32441,69.65632,-19.16502,139.61781
2078,6.38474,-7.11497,-0.30406,58.79207,-67.50483,100.06706
2100,6.70317,-7.82365,-0.76734,70.57185,-82.82465,120.20865
2125,2.6857,-7.2682,2.00993,90.10308,-69.7021,147.43031
2150,1.86329,-7.54712,0.9098,96.2066,-31.24998,218.10896
2176,2.40677,-7.49804,0.52792,68.00837,22.09471,262.35944
2201,5.366,-8.38509,-3.24773,-5.90515,-9.94872,204.00986
2227,6.84323,-6.04476,-3.45483,-76.70587,-92.77337,53.49728
2254,5.47374,-6.57627,-1.25815,-67.42854,-142.27284,-64.60567
2279,3.8409,-12.16075,2.31759,105.54497,-187.92711,-95.30633
2307,-4.58789,-22.78263,3.18908,185.562,-29.60203,64.6667
2332,0.70569,-16.33145,0.14844,181.59471,43.457,81.26825
2358,2.47501,-10.45368,-6.91805,110.24467,-214.41635,85.96795
2388,8.64965,-9.32242,-8.28753,-47.59212,-90.27093,30.91428
2414,6.67084,-11.30602,0.93374,-81.16144,97.83929,-17.66966
2442,1.37966,-11.09533,0.01556,-128.15848,156.31091,-21.57591
2466,1.45867,-11.05583,0.88945,-123.27567,160.64441,-23.95628
2490,1.65978,-10.84992,0.77213,-100.99785,133.48378,-39.88644
2513,1.41437,-10.30165,0.41539,-83.72491,112.97599,-59.17354
2539,0.86969,-10.14363,-1.47243,-78.59796,108.58147,-65.03291
2566,1.1163,-10.31243,-3.44526,-104.96513,94.72649,-62.95772
2588,0.2496,-10.68832,-1.97761,-113.26591,74.09663,-54.84005
2610,-0.78829,-11.41855,0.33878,-90.86602,32.47068,-34.82053
2633,-0.7009,-11.59213,1.37068,-45.94418,-6.28662,-5.2185
2661,0.167,-11.02231,1.31202,-7.24792,0,2.41089
2689,3.36565,-8.3408,-0.55905,1.11389,23.25438,-19.92796
2713,2.92152,-8.07624,-1.23301,-9.32311,18.79881,-37.44504
2740,2.60908,-8.04751,-0.65721,-5.05066,11.71874,-38.97092
2766,3.32255,-7.58064,-0.90381,3.37219,17.70018,-36.59055
2792,2.72879,-7.71232,-1.76932,3.18908,10.68114,-21.51488
2820,0.18735,-7.81048,-2.88501,-3.58581,-48.03463,7.41577
2846,-1.50057,-7.49086,-0.73263,0.07629,-66.28413,33.96604
2872,-1.42156,-7.62972,0.18316,11.12365,-54.32125,57.03731
2901,1.48022,-8.52635,-0.5351,31.69248,-17.94432,74.24921
2927,4.78302,-10.11969,-3.40216,21.25548,62.68306,65.82636
2955,10.56501,-11.1468,-7.34182,15.09093,87.2802,-7.04956
2981,8.33482,-9.34397,-3.6739,45.9747,-1.46484,-35.30882
3007,5.91188,-7.81647,-3.90135,-0.9613,13.42772,-29.99876
3035,5.6976,-9.72585,-3.57335,-25.9857,23.9868,-20.66039
3060,2.07877,-17.60995,-4.28203,-13.83971,-64.20894,-20.05003
3087,0.60513,-12.551,-2.59172,-18.60045,-154.66296,-38.23849
3114,-0.7416,-7.5148,0.99958,-15.85387,-125.61025,-22.67455
3142,-1.71245,-4.86083,2.01711,6.36291,-64.45308,-2.83813
3169,-2.57796,-8.50361,1.44251,1.84631,-7.81249,57.7087
3195,-1.79625,-12.08773,0.63327,-34.77475,3.66211,75.59199
3224,2.36128,-10.64761,1.0331,-33.00474,-28.01512,3.75366
3251,0.71527,-8.92977,1.99676,18.32579,-46.63083,-11.81029
3277,-0.77632,-8.67359,2.02789,88.69927,-43.33493,2.28882
3303,-0.58598,-9.97604,0.33878,97.48833,-32.34861,17.91381
3330,0.1227,-10.02033,-0.70868,77.28571,-17.76122,19.62279
3356,-0.01975,-9.21947,-0.18794,66.42146,9.27734,31.28049
3383,0.23882,-9.92816,1.44011,101.76079,68.11518,52.82589
3411,1.7328,-10.34475,-1.37667,86.68511,93.81097,53.3752
3437,2.91674,-9.34756,-5.75446,14.90783,52.24605,36.95676
3463,2.12186,-9.32242,-2.98677,-4.19616,20.81297,37.56711
3490,1.76034,-9.89344,-0.25379,24.61241,7.81249,38.54367
3518,1.38924,-10.47762,0.0838,38.04013,-7.44628,41.10715
3544,1.25636,-9.77852,0.51116,59.46346,2.38037,48.00411
3570,1.21087,-9.11532,-0.08859,44.26572,9.0332,60.57735
3595,2.46782,-9.74261,-1.50835,15.76232,3.479,69.1833
3621,3.98934,-11.16237,-0.09936,24.73448,44.73874,61.73701
3648,5.25467,-11.29046,-3.80199,-30.38023,12.5122,26.70286
3676,5.46896,-12.99154,-1.09056,-52.597,10.00976,-10.89477
3702,6.3189,-11.86147,-1.99317,-80.73419,15.07567,-79.07098
3729,4.30418,-10.09575,-1.92135,-121.62772,101.31828,-135.71156
3757,0.7835,-11.33595,-1.6496,-144.08864,124.02334,-164.82532
3783,-0.89603,-13.35306,-0.26217,-107.65068,74.09663,-155.36488
3810,-2.08595,-15.13076,0.14365,-54.06185,23.07127,-118.1945
3836,-0.95828,-11.93091,-1.79565,-29.89194,21.05711,-88.8366
3863,0.23523,-9.9509,-1.72143,-30.13609,23.19334,-76.26337
3890,0.95828,-8.47966,0.0838,-4.56237,-33.14207,-74.12714
3916,1.17136,-7.83682,-0.26576,-1.44958,-65.36861,-65.76533
3942,1.29107,-7.63571,-0.62608,-10.54381,-55.05367,-56.54903
3969,0.77991,-7.27179,-0.90142,-11.09313,-60.97408,-50.56759
3995,-2.26073,-7.0192,0.38666,2.57873,-68.90864,-24.87181
4022,-3.1777,-6.98927,1.47004,25.83311,-53.77193,25.36009
4049,-3.27826,-6.80731,1.50116,35.41562,-35.03415,62.46944
4076,-2.53606,-7.7219,-0.3292,43.7164,-19.89745,98.66325
4102,-1.19411,-9.55586,-1.26773,67.39802,-16.84569,133.88052
4129,2.2691,-12.223,-3.58532,51.16268,3.78418,107.87956
4155,15.32349,-13.68466,-6.30154,40.05429,37.17038,3.63159
4181,13.30997,-9.46967,-0.27414,36.39219,72.69282,-99.45671
4207,7.6788,-7.16046,-1.76692,-30.62436,121.94815,-70.22089
4234,1.25995,-17.17301,-2.7258,-34.71372,154.84607,27.61839
4260,1.43353,-17.8793,-8.33541,7.15637,-58.10542,0.76294
4286,0.83258,-11.83873,-4.65074,-39.41342,-161.19373,-26.7639
4313,-0.69013,-4.5843,2.07338,-39.9017,-127.44131,-13.15307
4340,-1.54725,-5.23193,2.95444,-22.07945,-84.47259,14.49584
4367,-1.73041,-9.17877,2.9329,-23.36119,-43.88425,43.67062
4393,0.2472,-12.7162,2.74256,-25.49742,-6.89697,18.89037
4420,0.94272,-10.27771,3.23098,3.7384,28.56443,-37.26194
4445,-0.5788,-8.72387,2.50314,54.76375,40.52731,-36.10227
4475,-2.25833,-9.02434,1.02951,89.37066,42.84665,2.9602
4503,-1.54246,-9.17398,0.0838,97.67144,42.6025,41.77853
4530,-0.55007,-10.16279,-1.22583,91.68999,16.84569,74.18818
4557,-0.02454,-11.05463,-0.85952,105.66704,0.18311,107.45231
4583,1.78787,-11.46763,-2.28646,104.75151,10.92528,124.84732
4609,4.63936,-10.6117,-5.9053,31.44834,18.49364,93.1701
4635,3.58232,-9.39305,-2.66714,-20.37047,21.24022,68.93916
4661,2.40797,-10.09814,1.59095,26.13829,61.58443,78.76581
4686,2.79343,-10.06103,0.51356,26.07725,32.71482,67.59639
4713,1.54486,-9.67557,-1.6113,4.53186,-5.92041,78.88788
4739,1.88484,-9.52473,-0.37709,12.16125,-22.15574,93.04803
4766,3.00532,-10.05505,-0.15083,19.24132,-26.79441,75.89716
4793,4.55437,-11.03308,-1.01754,6.30188,-37.35349,38.66574
4820,5.06194,-12.14997,0.31603,-7.98034,50.59811,-12.42064
4846,6.28538,-12.23497,-1.58855,-69.93098,106.62833,-82.73309
4872,2.98737,-8.74542,-2.70545,-114.05936,174.19421,-135.9557
4898,2.06081,-8.62212,-2.31639,-123.15359,150.3905,-180.63341
4924,1.17495,-10.6117,-1.13964,-88.0584,110.47355,-181.36584
4950,-1.50296,-16.45954,0.01915,-7.18688,50.84225,-155.05969
4977,-1.9387,-16.4739,-2.1057,7.94982,38.63522,-113.92204
5003,-0.76315,-13.61164,-3.53504,-28.244,47.24117,-91.82732
5030,0.73322,-8.24862,-1.3611,-26.35191,-24.90232,-88.59246
5057,0.73442,-7.53874,0.00958,-6.08825,-100.09758,-81.32928
5083,0.41001,-7.78056,0.41539,4.83703,-106.26213,-63.69014
5111,-0.74998,-7.60219,-0.25019,4.83703,-77.57563,-54.71798
5137,-1.88005,-7.44537,-0.08859,12.34435,-56.76265,-27.61839
5164,-2.86287,-7.37354,0.48602,25.03965,-49.49947,12.29858
5190,-3.04243,-6.88632,1.08816,35.53769,-37.10935,51.60519
5216,-2.70605,-6.74506,0.30885,35.53769,-27.03855,90.97283
5241,-2.53366,-7.4334,-0.65003,29.19004,-24.59715,126.31216
5266,-1.32938,-9.27334,-1.98838,24.2462,-12.08495,142.85268
5294,14.08928,-15.114,-13.72117,25.34483,36.31589,60.27217
5320,16.63551,-13.90133,-0.01437,83.81647,14.83153,-81.57343
5345,5.9047,-6.9797,-4.2126,-11.33727,25.32957,-89.63006
5371,1.20129,-10.4058,-2.45406,-86.53252,138.30557,7.53784
5398,2.47141,-17.671,-0.01077,-7.91931,232.72687,13.39721
5424,3.77027,-15.82627,-4.48673,24.12413,-68.35933,-46.96652
5451,-0.60753,-6.02202,-0.84396,-27.26744,-174.07214,-22.36937
5478,-0.54169,-4.46578,0.20231,-47.77523,-172.54626,1.25122
5505,-1.08996,-6.67683,0.88346,-67.85578,-145.81287,37.44504
5531,-0.38966,-14.08329,3.03106,-60.53157,-112.73185,30.05979
5559,1.35452,-12.91971,3.7158,-18.84459,-73.05903,-38.48264
5585,-1.54127,-9.05547,3.39498,44.99814,-19.77538,-51.17794
5611,-2.19129,-8.0535,2.38462,85.22027,15.9912,-18.34105
5639,-1.94469,-7.73267,1.47962,104.56841,49.98776,20.84349
5665,-0.59197,-8.74781,-0.35075,102.92046,72.08247,49.28585
5691,-0.21967,-9.90182,-1.14682,87.47857,65.18549,65.8874
5718,0.06404,-10.93252,-1.31801,87.84479,46.38668,88.28728
5742,2.48219,-11.91175,-4.03184,139.05324,11.65771,110.93131
5768,4.22277,-10.4058,-8.50181,71.60944,-34.36277,94.87908
5795,4.02765,-9.21947,-5.81911,-11.39831,-18.79881,75.89716
5821,3.38959,-9.19673,-0.42018,14.72472,61.46236,72.96748
5848,2.43191,-8.91062,-1.52152,-0.71716,50.65914,64.11739
5875,1.6107,-9.35714,-1.22463,-8.89587,13.79393,79.80341
5901,2.04764,-10.45727,1.3611,35.29355,1.77002,75.34785
5928,4.31974,-10.74697,-0.64643,34.62217,3.17383,33.66086
5955,3.7559,-10.14004,-2.45166,-17.13561,23.07127,16.14379
5982,4.54001,-11.53467,-2.70425,-68.22199,100.15862,-20.41624
6008,5.77422,-10.66916,-3.00353,-114.79178,121.33781,-88.59246
6035,5.16848,-9.44692,-2.46483,-126.38846,101.56242,-147.12514
6062,4.40832,-9.91259,-1.35991,-103.80547,58.77681,-185.8214
6088,-0.9068,-15.60002,0.15921,-59.24984,-33.32517,-146.39272
6115,-0.87568,-15.78677,0.55306,-27.02329,-97.41203,-111.11442
6143,1.45268,-13.03344,0.59616,-10.36071,-121.52091,-109.22234
6169,1.64063,-10.70627,1.20787,2.02942,-81.97015,-112.88444
6197,1.37846,-8.78971,1.35033,17.77648,-50.90328,-110.07683
6225,-0.97983,-7.4322,0.82839,24.91758,-43.82321,-83.64861
6251,-1.65739,-6.96773,-0.18794,16.00646,-54.80953,-45.01339
6278,-1.79984,-6.75584,-0.73263,6.1798,-67.01656,-19.01244
6304,-2.48458,-7.5555,-0.54348,6.30188,-80.50531,10.10131
6330,-2.72999,-7.63571,0.15323,12.46642,-76.59906,43.12131
6357,-2.54923,-7.34362,0.64165,21.49962,-55.05367,77.60615
6384,-1.8992,-8.97766,-0.96486,28.15244,-46.87497,105.01091
6410,0.80026,-12.03266,-3.02867,42.86191,-16.29637,119.65934
6437,8.28094,-13.94084,-9.4547,47.50058,70.98383,47.21066
6463,10.3244,-8.92618,-2.6001,36.20908,106.68937,-34.45432
6489,7.69796,-7.44178,-2.47441,-6.27136,-4.39453,-64.91084
6515,4.77224,-11.53586,-2.00155,-64.43782,0.79346,7.96508
6542,6.0292,-13.27525,2.4792,-3.70788,49.74361,-9.18578
6569,1.34853,-8.15285,-0.78769,47.13437,-63.53755,-27.55735
6597,-1.08876,-6.3165,-2.22062,6.48498,-127.68546,9.49096
6623,-1.34375,-8.10138,-0.27892,-13.35143,-179.50426,31.95188
6649,0.76555,-11.23898,-0.27533,-33.37094,-211.79182,20.11107
6675,1.39402,-12.11406,4.294,-9.9945,-176.57457,-49.10275
6702,-0.03172,-8.8783,3.68468,23.69688,-118.22501,-71.56367
6729,-1.3234,-8.32045,3.77446,74.4781,-25.57371,-54.10762
6756,-1.96624,-8.69035,2.61567,87.90582,28.19822,-30.36497
6783,-1.39642,-9.25299,0.05507,75.21051,56.21334,-14.4348
6809,-1.80822,-9.4577,-0.26576,62.45418,66.2231,21.08763
6835,-2.09433,-9.89583,0.08859,74.72224,53.22262,57.5256
6863,0.07721,-11.1492,-0.77452,111.64848,7.38525,81.45135
6889,1.60112,-11.312,-4.02705,100.29594,-86.30365,81.20721
6916,2.81857,-10.57938,-5.55096,61.59969,-104.37004,64.36152
6941,2.78625,-9.36672,-1.36829,35.65976,-36.19382,50.14034
6967,2.50613,-10.01076,0.47405,25.03965,41.74802,36.40744
6994,2.05482,-10.43573,1.1552,19.48546,128.96719,38.11643
7021,1.67654,-8.72866,-2.59771,-21.77428,119.0795,49.77413
7048,1.55084,-10.15201,-0.76255,-18.60045,125.79337,78.64374
7076,3.21841,-12.02548,0.19154,-23.54429,88.19573,58.19698
7102,4.57472,-12.85626,-2.35709,-48.69076,-7.01904,7.53784
7129,4.75069,-11.35271,-1.46645,-66.26888,-11.90185,-40.00851
7155,5.37558,-9.35714,-0.4944,-88.0584,123.84023,-100.00603
7181,4.60225,-9.26736,-1.82318,-121.74979,176.02525,-183.50206
7206,1.81181,-12.53784,-1.62327,-121.87186,146.11806,-185.45518
7231,-1.62985,-16.42482,0.01197,-61.08089,126.34268,-118.62174
7257,-0.60154,-14.58967,-0.70868,38.22324,106.81144,-81.51239
7283,0.99898,-11.36348,-2.82276,36.88047,76.72113,-74.55439
7308,1.70886,-8.48206,-3.16035,13.25988,-20.75194,-89.69109
7333,1.55204,-6.56071,-3.05859,-18.35631,-100.15862,-90.24041
7360,-1.46465,-6.91745,-1.92135,-49.78939,-117.73672,-59.41768
7385,-1.89681,-7.09342,-0.01437,-40.51205,-88.19573,-32.56223
7411,-2.12785,-7.15687,1.65559,-8.9569,-43.33493,-1.7395
7438,-2.57915,-7.30172,2.58215,20.88927,-3.35693,35.49192
7464,-2.36248,-7.23827,1.6915,34.19492,19.22606,69.85469
7490,-2.15777,-7.26461,0.39624,35.47666,7.32421,113.18961
7517,0.33938,-9.88865,-1.82558,35.23252,-20.6909,142.60854
7543,8.07145,-12.69825,-12.56477,-26.59605,72.81489,104.94987
7570,15.79036,-15.37018,-9.23563,90.77447,39.978,-30.18186
7596,10.3244,-8.65324,-2.21105,74.78327,8.05663,-108.00163
7621,5.58388,-5.29418,-4.83988,-39.53549,17.2119,-85.29657
7646,0.3322,-8.755,-2.61207,-87.38702,103.33244,37.2009
7672,1.83575,-16.55172,0.31603,5.56945,139.46523,31.76877
7697,1.48022,-12.77486,-6.05733,3.25012,-123.53506,-33.11155
7721,-0.43515,-8.03913,-0.80924,-47.10385,-194.3358,-12.29858
7747,-0.45669,-5.87836,0.78051,-59.06673,-188.78159,9.30785
7774,-0.246,-5.93822,1.82318,-47.77523,-157.59265,13.94652
7800,-0.10834,-11.95844,3.53145,-33.61509,-116.82121,2.16675
7826,0.1634,-13.02506,3.45962,-14.38903,-66.4062,-30.79221
7854,0.13707,-11.55382,3.9636,28.51866,8.36181,-44.28098
7881,-1.61429,-7.87752,2.92571,57.69344,69.94624,-24.5056
7908,-1.85132,-7.56508,1.88065,77.22467,123.9623,19.19554
7933,-0.89842,-8.88309,0.22146,79.60504,149.35292,53.25314
7959,-0.27713,-9.72944,-0.58778,70.87702,143.73769,76.69061
7986,0.09038,-10.7781,-1.01634,59.15828,122.55849,94.39079
8013,0.83378,-11.54783,-1.01514,77.04157,83.31293,105.62126
8039,2.37086,-11.10251,-1.46525,103.40874,30.21238,105.6823
8066,3.37044,-10.08976,-3.7972,56.28963,8.05663,90.30145
8094,3.64218,-9.80725,-2.3547,16.49474,34.66794,82.30585
8120,3.49972,-10.21785,-0.92895,9.17053,50.78121,72.11298
8147,3.20404,-10.01914,-0.54588,8.68224,29.96824,61.06563
8175,2.77787,-9.37629,-0.93015,-2.67029,-7.32421,55.08419
8201,3.00173,-10.0347,0.11013,5.26428,-13.97704,51.48312
8226,4.11623,-10.73859,0.30047,-2.48718,-7.44628,21.75902
8253,4.02525,-11.59811,0.07781,-22.14049,22.03367,6.31713
8279,5.13018,-12.25412,0.10774,-28.4271,73.12006,-28.71702
8306,5.2439,-11.18272,-2.44209,-74.87482,100.40276,-90.9118
8334,2.54204,-7.73267,-2.1871,-101.54716,167.35826,-135.28433
8359,1.96265,-8.72387,-2.05063,-115.3411,183.47154,-176.54405
8386,0.28671,-12.25532,-1.89501,-78.8421,136.41347,-165.37463
8412,-2.8916,-17.58362,-1.53588,-0.83923,34.60691,-118.49967
8438,-1.67295,-14.64593,-3.35308,-20.4315,6.04248,-88.34832
8465,0.02813,-11.63642,-2.87663,-45.02865,0.06104,-75.95819
8491,1.63943,-8.36714,0.88705,-19.51598,-56.39644,-71.56367
8518,1.99736,-8.09659,1.35991,17.34923,-109.8632,-73.08955
8544,1.64781,-8.01639,-0.12091,11.30675,-84.59467,-65.15498
8570,-0.67576,-7.36995,-1.00796,-8.46862,-53.28365,-49.65207
8596,-1.87047,-7.2275,-0.65362,-9.62829,-57.00679,-23.34593
8623,-2.72999,-7.21193,0.12689,-0.53406,-50.72018,13.88549
8650,-2.95863,-7.21672,0.99,7.88879,-19.53123,49.46896
8676,-2.51092,-7.28376,1.23661,12.03918,21.60643,83.28241
8702,-2.11947,-7.49924,0.22146,11.79504,27.83201,108.1237
8727,-1.67055,-8.77415,-1.09894,16.37267,3.66211,135.10123
8753,9.8276,-14.54059,-10.57279,41.6412,60.30269,98.66325
8780,15.13435,-13.39855,-5.0374,71.1822,94.36028,-9.36889
8807,14.06653,-9.99639,-2.28766,46.27987,40.22214,-81.75653
8835,6.20278,-9.27933,-5.98431,-68.22199,67.26069,-43.12131
8861,3.99532,-16.73607,-3.29801,-27.14537,86.914,-13.94652
8889,2.67492,-18.14745,-7.34541,-25.86363,-102.17278,-63.69014
8914,-1.8992,-8.41502,1.15041,-48.26351,-196.16684,-33.59983
8939,-1.29347,-5.17806,3.04064,-43.56381,-155.3954,0.88501
8965,-0.95229,-4.11144,3.11127,-32.15024,-102.96623,20.35521
8991,-1.47662,-11.55621,3.62841,-28.61021,-49.86568,42.51096
9017,-0.6207,-14.15153,3.07655,-43.25863,6.7749,26.70286
9043,1.44789,-12.94964,3.34231,-22.87291,70.31245,-57.34248
9069,-2.0213,-9.79408,3.27168,26.93174,103.39348,-52.94796
9095,-2.54923,-9.34996,2.19788,83.14508,103.82072,-12.54272
9121,-2.15299,-9.05188,1.37667,139.48048,65.73481,25.60423
9147,-1.64542,-8.99921,-0.45849,128.7383,17.70018,63.6291
9173,0.67337,-10.45847,-8.07444,94.80279,-65.36861,86.2121
9200,3.21362,-10.99717,-9.96946,-2.91443,-21.11815,68.93916
9227,2.69647,-9.09019,-2.63961,-102.58476,87.15814,40.98508
9253,1.16298,-9.23623,0.32561,-114.54764,123.71817,43.73166
9280,0.4124,-9.88626,1.97522,-80.06281,132.9955,61.49288
9306,0.495,-10.57818,1.97282,-51.49837,101.56242,72.11298
9331,1.2396,-10.85232,0.48722,-35.56821,71.71626,73.57782
9358,1.485,-10.2801,0.26815,-28.36607,43.51804,68.93916
9384,1.57239,-9.52234,0.07422,-30.92954,22.58299,67.65742
9410,0.25438,-9.83957,0.31963,-48.20248,29.66306,88.71453
9437,-0.19333,-10.9002,0.7446,-72.67756,62.68306,138.82436
9464,0.70569,-12.39059,1.55264,-56.13704,77.08735,153.839
9490,7.06349,-12.6372,7.20894,58.05965,185.24156,75.83612
9517,6.57508,-11.2318,1.80164,83.32819,182.37291,8.94164
9543,4.89315,-10.72542,0.70749,110.61088,201.11069,-24.5056
9570,0.92835,-11.04505,-4.39695,62.63728,571.71588,-26.45872
9596,-0.73083,-9.47326,-24.50465,-99.89922,362.18234,-45.25753
9623,-1.55683,-8.5491,-13.40035,-59.06673,61.09615,-37.38401
9649,-3.38959,-8.57064,0.91339,-27.99986,26.4282,11.56615
9675,-1.93033,-8.31925,2.33554,5.81359,108.21525,33.59983
9700,-0.9104,-8.26897,1.72742,21.62169,174.92662,27.06907
9726,-0.95469,-8.68078,-1.7346,19.79064,208.19077,34.39328
9752,-0.11911,-8.66641,-2.09014,19.05821,195.67857,38.72678
9778,0.06883,-9.18595,-1.24977,27.96934,169.18933,42.7551
9804,-0.10834,-10.50875,-0.85952,24.18516,155.45644,55.08419
9830,0.30347,-10.52192,-0.61411,20.15685,153.74745,55.6335
9857,0.32501,-10.49319,-0.4118,18.93614,161.98718,60.45528
9883,0.00539,-10.62607,-0.26935,16.92199,174.01111,75.16473
9909,1.01335,-11.52269,-0.44652,13.13781,161.4989,87.86005
9936,1.86808,-11.66635,-0.17957,20.64513,146.30116,85.78484
9964,3.08433,-9.19553,1.43772,57.02205,171.20349,67.47431
9991,3.45304,-7.89308,0.37948,72.28083,212.52426,47.33273
10017,4.03962,-8.27137,-1.39223,40.66464,292.9075,3.02124
10042,2.36966,-9.72345,-4.63517,2.02942,355.77365,-28.22874
10069,-0.05686,-9.71148,-7.07606,-30.92954,294.92166,-34.27121
10095,-1.73999,-10.22384,-6.84143,-57.72396,172.54626,-13.64135
10121,-1.5293,-10.38186,-4.3778,-65.17023,112.48771,2.71606
10147,-0.01018,-9.75338,0.26695,-34.04233,79.28461,16.08275
10174,1.29945,-8.80527,1.3204,5.38635,41.25974,18.46312
10201,2.27389,-8.22229,1.09894,30.10557,14.09911,18.34105
10227,3.32375,-8.37671,-0.0431,30.59385,46.87497,18.21898
10254,3.86484,-9.17278,-0.99718,11.00158,112.1215,-2.41089
10282,3.12144,-10.23222,-1.95965,13.50402,160.94958,-27.00804
10308,-0.62549,-12.05062,-5.50068,10.94054,97.5341,-24.26146
10334,-0.96307,-10.77211,-5.17626,-15.91491,15.86913,-14.73998
10360,-0.55007,-9.03153,-2.11767,-11.88659,-22.70506,2.04468
10384,0.59436,-9.16919,1.59214,6.24084,-0.48828,14.55687
10410,1.96983,-9.68754,0.41659,16.55577,34.91208,11.87133
10435,2.89758,-9.62409,-0.44532,18.38683,79.956,-8.45336
10461,2.16017,-9.40143,-2.2314,10.87951,84.6557,-24.56663
10488,0.86131,-10.34834,-2.42174,0.93079,59.02095,-27.31321
10514,-0.32621,-10.52192,-1.79805,-1.14441,42.66354,-9.67406
10541,0.71527,-9.25898,-0.94571,2.02942,49.07223,17.42552
10567,2.35769,-9.28052,-0.85473,2.76184,64.69722,16.57103
10594,3.07834,-9.89224,-0.80206,8.74328,77.27045,14.49584
10620,3.49374,-9.55346,-1.60412,10.75744,56.27437,15.04515
10647,3.80139,-8.96569,-1.77051,10.26916,15.50292,8.45336
10674,3.62542,-9.18595,-1.96684,-1.26648,-5.31005,0.03052
10701,1.56401,-10.71345,-0.85473,-12.80211,-5.49316,-5.52368
10727,0.93075,-10.40101,-0.09697,-11.27624,-4.27246,-1.98364
10754,0.86969,-9.65881,0.26217,-0.9613,1.28174,-0.82397
10782,1.1989,-9.80126,0.06943,4.83703,15.13671,4.85229
10808,1.84773,-9.6217,-0.03112,13.93126,33.32517,9.00268
10833,2.50493,-9.28531,-0.55785,17.04405,50.29293,5.15747
10860,2.70126,-9.50319,-2.82276,6.11877,30.33445,0.39673
10886,2.28347,-10.05385,-3.10169,-0.41199,-17.2119,1.19018
10913,1.88843,-9.97843,-3.08493,-11.0321,-66.46723,1.5564
10939,0.96187,-9.65282,-0.65601,-7.12585,-91.49163,4.36401
10965,0.70569,-9.74141,-0.29209,-0.90027,-91.85784,10.58959
10991,0.81582,-9.72465,-0.21907,1.05286,-84.28949,12.29858
11018,1.00856,-9.79049,-0.10295,8.01086,-55.1147,7.11059
11046,0.35015,-9.92337,-0.30406,9.10949,-22.27781,10.34545
11072,0.33938,-9.50319,-0.87628,-1.20544,-13.30565,12.84789
11098,0.46866,-9.15603,-0.9505,-0.7782,-23.80369,14.86205
11124,0.76674,-9.72585,-0.34836,8.4381,-37.84177,15.89965
11151,0.73442,-10.25137,-0.40582,14.48058,-43.51804,19.37865
11177,0.73083,-10.09455,-0.48483,13.50402,-29.66306,20.47728
11203,0.95469,-9.0854,-0.85832,7.70568,-23.01024,17.48656
11230,0.96905,-9.18715,-0.68714,7.64465,-20.75194,13.39721
11257,0.81463,-9.71866,-0.73981,8.01086,-23.92576,13.51928
11283,0.62189,-9.79767,-0.62369,9.78088,-21.78954,14.19066
11309,0.55007,-9.74859,-0.7003,7.70568,-19.40917,16.32689
11336,0.4938,-9.56903,-1.02472,1.72424,-27.4658,19.07347
11363,0.7835,-9.27933,-0.49081,4.83703,-32.28757,16.63207
11389,0.70449,-9.5403,-0.61651,1.54114,-39.1235,18.09691
11416,0.9092,-9.89943,-1.00556,-6.88171,-56.88472,15.35033
11443,1.85012,-10.11371,-0.54588,-7.06481,-80.38324,-1.80054
11470,2.04166,-10.05625,-0.19992,3.06701,-92.28509,-28.10667
11495,1.86808,-10.32679,0.2909,15.64025,-66.5893,-48.91964
11520,0.71886,-11.33116,0.0838,14.60265,-10.2539,-63.26289
11545,-0.31424,-11.8938,-1.06781,-10.23864,71.47211,-63.93428
11572,-1.17256,-11.48199,-2.79762,-48.69076,120.60538,-61.98115
11599,-1.72203,-9.3308,-4.60405,-70.23615,108.39835,-61.85909
11626,-1.1558,-9.18476,-3.65954,-74.50861,40.83249,-52.94796
11654,-0.06045,-9.16081,-1.71425,-59.86019,-3.11279,-59.11251
11681,-0.4136,-10.17236,0.52074,-28.18296,-25.51268,-51.54415
11707,-0.41001,-10.59255,0.81762,-2.67029,-5.49316,-41.10715
11734,0.21488,-10.63564,0.59855,11.85607,40.22214,-39.52023
11761,1.40719,-9.83358,-1.4437,5.50842,91.6137,-43.79269
11787,1.2791,-9.19792,-2.28766,-1.02234,75.50043,-43.54855
11813,1.42156,-8.66881,-3.24055,-6.21032,35.15622,-41.29025
11838,1.44311,-9.16201,-3.73495,-16.83043,-8.11767,-36.28537
11866,1.30903,-9.27214,-2.89459,-21.6522,-17.57811,-30.67014
11892,0.92476,-9.17518,-1.99317,-16.83043,-17.27294,-19.13451
11918,0.35973,-8.53353,-1.50476,-10.11657,-13.00048,-2.89917
11944,0.52732,-8.3396,-1.53708,-4.4403,-1.70898,18.7683
11972,1.24558,-8.18518,-1.53827,4.28772,-6.59179,32.25706
11998,2.97899,-7.6393,-1.97163,21.13341,-21.85057,39.15402
12025,3.67211,-7.41305,-2.81199,33.03526,-41.38181,44.1589
12051,5.48212,-8.0092,-4.12401,22.47618,-46.32565,28.77806
12077,8.12891,-9.7043,-2.82037,10.33019,-30.09031,3.02124
12103,5.81492,-8.81725,-1.63285,13.9923,-8.85009,4.66919
12130,4.25629,-8.81485,-2.52349,-1.81579,15.19774,-1.12915
12157,2.93948,-18.33779,-5.38695,-5.41687,-12.57323,-22.18626
12183,1.69809,-16.5158,-3.03345,-18.23424,-65.67377,-47.21066
12209,-0.6183,-9.53072,0.28252,-13.53454,-83.25189,-37.26194
12235,-1.30065,-4.02884,1.00078,-6.5155,-75.07318,-15.65551
12263,-1.97462,-5.38995,0.7829,-13.96178,-58.53267,34.14915
12290,-2.22361,-9.60254,0.15921,-35.14096,-57.25093,68.20673
12318,1.5688,-12.1811,1.70467,-21.34703,-48.88913,17.42552
12345,1.46705,-10.75535,2.90058,28.45762,-21.17918,-18.09691
12372,-0.54169,-9.63726,2.7234,71.97565,1.09863,-3.32641
12398,-0.92835,-8.94534,0.29209,78.20123,24.04783,21.82005
12425,-0.35015,-9.20152,-0.50398,62.21004,43.70114,29.93772
12450,-0.2472,-9.78331,-0.18076,76.12605,89.53851,52.82589
12477,0.9894,-10.16758,-0.7027,72.70808,113.22013,63.32393
12503,2.00455,-10.03949,-2.25294,45.30331,122.43642,62.89669
12529,3.17651,-9.60254,-3.44286,12.83263,108.15421,54.59591
12553,2.66056,-9.38826,-2.64559,-1.51062,66.52827,48.4924
12578,2.0237,-9.46488,-1.29167,4.34875,8.30077,47.08859
12605,2.06081,-9.44213,-0.46926,20.58409,-20.81297,38.48264
12632,1.46824,-10.27651,-0.13886,30.10557,-29.29685,35.36985
12658,1.19411,-10.59973,-0.21907,37.06357,-34.05759,42.63303
12684,1.33656,-10.56741,-0.25019,36.63633,-31.61619,48.24826
12711,1.88364,-9.43375,-1.17555,20.15685,-35.27829,44.40304
12738,2.37086,-9.77972,-0.09816,22.78135,-17.88329,33.05051
12764,2.96462,-10.38305,0.39504,18.56993,8.30077,10.65063
12791,2.61626,-11.88661,-1.37427,-13.2904,6.53076,3.26538
12818,3.48296,-12.64198,-0.01676,-15.12145,51.02535,-13.70238
12847,4.63458,-11.44967,-2.0638,-60.77571,47.66842,-77.5451
12875,2.80062,-7.89308,-1.89262,-90.37774,97.65618,-137.84779
12901,1.63225,-8.70232,-1.84234,-100.32646,138.36661,-164.94739
12927,-0.02334,-11.29884,-1.82917,-78.4759,100.89104,-149.44447
12954,-2.86047,-15.00267,-1.59095,-39.59653,23.49852,-101.28777
12982,-1.93272,-13.75529,-2.11049,-47.65316,18.98192,-76.44647
13009,0.49979,-10.46206,-0.36033,-43.80795,31.67722,-64.60567
13035,0.97983,-9.17757,0.36033,-20.06529,-2.38037,-62.4084
13061,1.30065,-8.342,0.76255,8.13293,-51.75777,-61.85909
13086,1.21087,-8.08462,0.3711,12.28332,-47.79049,-53.55831
13112,0.26995,-7.45734,-1.43532,-5.72204,-11.23046,-37.38401
13139,-0.49021,-6.95695,-1.4042,-4.50134,-36.37693,-20.90452
13165,-1.3641,-6.71155,-0.59376,10.33019,-77.51459,9.42992
13192,-2.56718,-6.66366,1.12887,22.29308,-60.24165,60.57735
13218,-1.76872,-6.73309,1.02352,20.70616,-30.02928,87.43279
13245,-0.65302,-7.7638,0.15921,18.63097,-17.2119,109.58854
13271,7.4741,-13.75648,-9.3314,-2.79236,94.48235,86.15106
13299,14.79557,-14.02104,-7.60279,73.07429,63.9648,-15.77758
13325,14.1611,-10.79366,-1.80044,81.92438,22.88817,-89.75213
13351,4.24432,-6.32009,-5.14634,-16.9525,23.9868,-66.55878
13377,1.58676,-11.70585,-3.27527,-80.55109,65.73481,39.21506
13403,2.11947,-18.99739,-0.87987,11.97814,28.07615,16.81517
13429,1.04567,-10.92055,-3.32794,-1.57165,-108.03214,-52.88692
13453,-0.74879,-6.76302,-0.29568,-32.57749,-122.49746,-44.40304
13477,-1.45986,-4.71358,0.90381,-40.38998,-95.51995,-10.28442
13501,-2.26312,-5.06434,1.80523,-43.80795,-64.51411,39.6423
13525,-1.35691,-12.83831,2.15119,-51.62045,-41.87009,69.30537
13549,0.92715,-12.85986,2.50553,-40.32895,-25.87889,36.65158
13575,1.54965,-10.79007,2.80122,11.42882,-5.49316,-32.01292
13601,-0.96187,-9.50797,2.61327,65.07868,-4.82177,-16.26586
13627,-1.74597,-8.31925,0.73861,90.40826,1.83105,15.65551
13652,-1.16298,-8.55987,-0.37709,80.64265,11.59667,39.21506
13679,-0.26875,-8.99681,-1.12049,56.71688,16.54052,45.07443
13704,-0.17777,-9.91259,-0.89304,55.98446,24.59715,63.446
13732,0.37409,-10.88225,1.10492,95.59624,37.35349,79.98651
13759,1.23601,-10.53389,0.11612,106.8267,40.58835,83.16034
13786,2.56239,-9.67437,-3.15436,76.73639,39.1235,86.63934
13814,3.67809,-9.69472,-4.26407,38.65048,57.43404,81.93964
13837,3.93188,-9.94252,-4.22696,-4.4403,55.66402,64.60567
13863,2.97779,-10.60811,-1.44849,6.30188,50.84225,65.64326
13890,2.2296,-8.94534,-1.83635,-13.90075,-0.24414,59.66182
13917,1.88244,-9.25778,-0.82959,-8.9569,-26.00096,65.76533
13943,2.46902,-10.55663,0.69911,7.15637,-25.08543,52.27657
13969,3.60387,-11.32398,-0.52313,-9.07897,-21.54539,22.4304
13995,3.68168,-12.28764,0.65003,-14.08385,25.26854,1.5564
14021,4.94702,-11.82197,-1.25696,-56.86946,52.85641,-57.34248
14048,4.69802,-8.04152,-1.22463,-91.53741,157.10437,-128.87564
14074,4.10426,-8.05589,-1.91416,-104.53788,157.83679,-187.71349
14100,2.6845,-10.66796,-1.21506,-51.13216,111.69425,-206.75644
14126,-2.78146,-16.71931,-1.3611,1.41907,39.30661,-164.39807
14153,-3.34171,-16.20934,-2.63961,-21.34703,34.97312,-105.01091
14179,-1.27551,-13.14955,-3.27886,-34.77475,24.04783,-92.07146
14204,-0.13228,-8.755,-0.50996,-23.05601,-35.09519,-76.26337
14230,0.39923,-7.78894,0.51954,-3.34167,-98.63274,-64.54463
14256,0.71407,-7.35918,0.32681,5.44738,-119.38467,-54.59591
14281,0.38846,-7.31129,0.13408,1.41907,-68.23725,-39.03195
14307,-1.77829,-7.29334,-0.96127,-2.79236,-50.04879,-15.59447
14336,-2.6019,-7.24904,-0.50159,1.54114,-52.61226,20.59935
14365,-2.78506,-7.69437,1.02472,10.87951,-24.71922,65.70429
14391,-2.50613,-7.84041,0.81403,18.14269,6.16455,102.69157
14417,-2.11588,-8.80168,-0.43934,25.4669,-15.31981,133.45326
14443,7.48727,-13.34109,-11.38204,36.57529,-41.93112,130.52359
14470,14.42447,-13.53023,-5.25767,58.8531,36.62107,26.947
14495,12.4684,-11.15159,-0.91578,26.99278,52.36813,-53.07003
14521,3.73076,-13.34109,-3.56257,-71.15168,136.2914,-14.61791
14544,3.25911,-18.04809,-1.6496,-54.36702,232.48273,-12.29858
14568,1.29826,-14.85063,-2.5606,50.36923,51.14742,-44.34201
14591,-1.58436,-9.69592,-5.04698,0.62561,-118.0419,-20.66039
14616,-0.60633,-5.76584,-1.70587,-32.51645,-141.78456,-5.2185
14642,-0.72245,-3.5093,0.87029,-45.76107,-130.24892,11.07787
14667,-1.42635,-7.95294,0.87747,-63.52229,-119.14053,44.03683
14694,-0.87209,-12.25771,1.76812,-56.56429,-94.72649,51.66622
14722,1.6526,-10.82957,3.57335,9.71984,-55.78609,-19.68382
14748,-0.18615,-9.70909,2.61567,60.31795,-35.58347,-31.40256
14774,-1.15221,-9.34038,1.7753,94.68072,-5.06591,-7.78198
14801,-0.77991,-9.03632,-0.35913,87.41753,27.03855,11.68822
14827,-0.38008,-9.37749,-1.19351,61.29451,41.68698,27.31321
14853,0.03771,-10.56262,-1.07021,64.95661,41.38181,39.09299
14879,0.27234,-11.38982,1.10492,103.1646,54.80953,54.2297
14905,1.10911,-9.47326,-6.82228,23.39171,6.71386,56.85421
14931,1.51254,-8.8364,-4.74172,-26.04673,-17.76122,52.82589
14958,1.10792,-10.30045,1.23541,13.93126,23.9868,57.83077
14985,1.05285,-10.21546,-0.65242,8.98742,22.09471,64.78877
15012,1.00856,-9.73662,-0.31603,16.18956,23.68162,77.85028
