timestamp,ax,ay,az,wx,wy,wz
26,-0.02274,-1.56282,9.74739,-3.72314,29.47996,-10.99395
54,0.20351,-1.47662,9.6636,-0.12207,31.67722,-10.20049
77,0.34955,-1.54965,10.04427,-2.19726,48.46188,-13.74053
100,0.22625,-1.71844,9.71866,1.0376,46.7529,-16.79228
123,-0.31364,-1.74837,9.95449,7.69042,9.88769,-18.44023
147,-0.11492,-1.70407,10.78408,10.19286,28.56443,-18.3792
172,-0.0838,-1.70886,10.3208,10.92528,66.52827,-12.45879
198,0.43455,-1.41916,10.37348,14.16015,102.23381,-12.21465
221,0.62608,-1.22763,11.26173,40.46628,121.94815,-14.10674
245,-0.82121,-1.20249,10.79605,51.51363,178.64977,-9.71221
268,-1.15401,-0.62549,8.46769,45.34909,212.15804,-9.10186
292,-2.32477,-0.88047,5.19123,-3.60107,222.04573,-5.01251
315,-1.96803,-0.9104,1.96504,-46.69186,207.51936,-6.17218
339,-2.20147,-1.03011,4.6645,-44.92184,196.16684,-7.02667
364,-3.5518,-1.95427,8.01279,-29.96824,171.69176,-9.10186
386,-3.9217,-2.24397,8.43537,-13.42772,156.37195,-15.99883
410,-4.76446,-2.47979,8.25581,-4.27246,144.40907,-19.78301
435,-5.43364,-2.46543,7.61655,2.13623,116.21085,-24.66581
460,-5.26485,-2.57197,6.25425,-8.66699,74.64594,-36.87284
485,-7.12634,-2.96582,6.74387,-11.10839,43.27389,-40.84012
511,-7.32147,-2.92512,6.92583,-6.10351,33.02,-39.86356
534,-7.50103,-2.83174,6.05434,-8.78906,30.02928,-35.10282
558,-7.83263,-2.92512,4.3341,-30.09031,38.02488,-33.3328
582,-9.46428,-3.07834,4.63218,-35.82761,57.373,-28.02275
607,-11.15339,-3.28664,4.22517,-33.63034,91.18645,-14.16778
633,-10.68772,-3.11545,1.33058,-58.47164,72.44868,-13.19121
657,-9.8282,-3.21122,-0.90202,-97.5341,29.60203,-19.17265
681,-10.95706,-3.222,2.5169,-101.25725,7.87353,-12.33672
704,-10.12628,-3.01969,3.50451,-96.06927,28.01512,-5.31768
729,-9.0022,-2.82336,3.15616,-101.19621,46.87497,-10.26153
761,-10.15141,-2.55521,5.28221,-62.86616,43.457,-7.63702
787,-10.69729,-3.137,4.10187,-40.03903,41.50388,1.27411
814,-11.3533,-3.76309,2.49895,-42.72458,44.92184,11.77215
838,-12.07276,-3.99173,1.76513,-43.21286,36.13279,22.57536
860,-11.31619,-3.61584,1.82977,-41.38181,34.4238,26.05436
907,-8.67898,-3.38839,2.60549,-36.25486,38.51316,13.84734
929,-8.02177,-3.28185,3.25791,-19.95848,26.4282,4.69207
955,-7.58962,-2.97779,3.65176,3.72314,20.87401,-5.13458
979,-10.02332,-3.64218,2.14101,14.22118,19.40917,-0.06866
1000,-9.92516,-3.66971,1.42635,11.71874,26.97752,6.76727
1023,-8.81186,-3.12383,1.17615,5.49316,33.08103,4.50897
1056,-8.588,-2.74076,1.1558,11.35253,14.34325,-0.3128
1081,-9.85214,-2.79463,-0.40881,5.12695,3.84521,1.64032
1102,-10.08797,-2.86646,-0.9511,-12.81737,-5.55419,0.48065
1123,-11.34014,-3.1382,-0.2879,-22.9492,2.56347,9.26971
1144,-12.06438,-3.43269,0.06404,-25.32957,1.40381,23.06364
1165,-11.30422,-3.31657,0.44472,-31.18894,13.54979,30.93717
1186,-10.72722,-3.24594,0.88166,-32.1655,21.54539,35.27066
1208,-10.43752,-3.16094,1.50895,-24.90232,26.18406,37.46793
1230,-10.49379,-3.35368,1.76393,-6.65283,22.82713,39.11588
1252,-9.98741,-3.14179,1.51254,1.46484,32.47068,34.35514
1274,-10.10353,-3.03525,0.2903,-5.67627,19.71434,30.93717
1294,-10.74159,-3.11426,-1.15939,-15.86913,6.40869,33.43961
1315,-11.29584,-3.3872,-1.6933,-27.28269,-5.67627,37.52896
1337,-11.17972,-3.49374,-1.73041,-40.1611,-20.5078,43.02213
1358,-10.66497,-3.65654,-1.09235,-49.31637,-25.63475,49.85806
1379,-8.90643,-3.0975,-0.34417,-48.76705,-21.30125,47.96597
1401,-8.0122,-2.62823,-0.97264,-61.27925,-16.84569,43.87662
1423,-8.03135,-2.44987,-1.00497,-71.35004,-19.34813,41.61832
1445,-7.16944,-2.1889,-0.21608,-76.23286,-16.54052,29.47233
1467,-4.37181,-1.58676,-0.04729,-81.54291,-9.09423,-0.37384
1489,-1.70228,-1.22044,0.67457,-82.27533,-26.97752,-52.55886
1511,0.6213,-0.93673,0.13467,-84.41155,-52.91744,-110.05394
1533,1.1971,-1.84294,1.41797,-74.82905,-93.81097,-142.76875
1554,-4.39456,-4.13299,1.47184,-49.43844,-104.43107,-114.32639
1575,-12.43429,-6.526,12.53544,11.16943,-43.09079,-72.57838
1598,-10.47224,-5.9861,7.267,10.31493,44.92184,-62.20241
1621,-6.42005,-5.41389,4.99849,10.07079,88.98919,-85.88403
1645,-2.48997,-5.15292,3.61943,21.97264,-2.92969,-151.80196
1667,-2.77967,-4.86203,-5.71915,-5.18798,-101.62346,-162.8493
1689,-7.98107,-6.52001,-6.47691,-61.8896,-143.0663,-150.70331
1711,-9.81383,-7.103,-4.03842,-91.91888,-116.69913,-113.77707
1733,-9.64145,-6.52959,4.953,-86.36469,-1.77002,-81.24536
1756,-6.84263,-5.4522,9.8707,-33.32517,5.12695,-77.40015
1778,-3.6344,-4.71718,10.57579,49.13326,-51.14742,-118.53781
1801,-4.72855,-6.79415,3.43388,55.23677,-101.98967,-135.44453
1823,-8.40125,-9.12011,0.93673,20.87401,-96.49651,-107.79564
1846,-11.95425,-9.33799,4.15574,14.9536,-52.24605,-60.24928
1869,-10.98819,-8.48685,3.88998,3.72314,-6.89697,-18.31816
1892,-8.56526,-8.30848,2.53366,-11.77978,28.13719,-12.03155
1914,-3.57933,-7.50522,0.74879,-20.20262,43.15182,-34.24833
1938,-3.72538,-7.92421,-0.91758,-14.7705,-7.44628,-53.71852
1960,-3.83551,-8.49283,-2.26551,-25.2075,-41.50388,-56.58718
1982,-5.11042,-8.42579,-2.39839,-51.57467,-40.03903,-37.42215
2004,-6.01783,-8.55508,-2.6438,-72.08247,-35.82761,-12.70293
2026,-3.055,-6.91266,-2.28826,-79.58978,-2.86865,-42.12186
2049,1.52271,-6.18961,-0.62668,-83.12982,99.36516,-123.90891
2072,4.80636,-7.52797,7.6812,-21.66746,127.38028,-259.71201
2095,1.88065,-6.36439,1.59394,2.2583,65.36861,-298.95761
2118,0.79487,-5.10264,-4.04321,-55.05367,33.08103,-280.52499
2140,0.17837,-5.5336,-4.68126,-103.02727,67.19965,-254.52405
2162,-1.40181,-6.56789,-5.23791,-146.66737,109.80216,-175.23943
2186,-3.632,-7.12814,-5.51444,-157.04335,102.29485,-52.86404
2207,-3.85107,-7.0599,-4.00251,-149.53603,75.68354,29.65544
2231,-0.9505,-11.09293,-2.80062,-119.20157,106.14006,-2.87628
2254,11.52928,-32.48154,-2.83054,-40.40524,79.28461,-159.98065
2278,-2.27808,-26.61215,-1.54007,-5.92041,-120.72745,-101.50902
2302,-4.86741,-15.45996,2.22361,-18.79881,-77.57563,-8.61358
2324,-4.10007,-9.66719,2.74795,-41.07663,48.70602,40.09244
2347,-2.41455,-6.66127,-0.07961,-57.25093,128.662,59.19643
2370,-0.73861,-5.50846,-0.72245,-43.70114,126.64785,41.74039
2393,-0.04429,-9.98681,0.70449,-15.19774,67.68794,4.69207
2416,0.05626,-11.27011,-1.64302,6.04248,-20.44676,-30.15897
2438,-1.26055,-11.08456,-3.03405,6.958,-35.70554,-22.95683
2461,-1.42335,-11.4808,-2.36607,-11.10839,10.07079,-4.40216
2484,-1.48201,-13.61044,-0.62908,-7.26318,14.16015,3.71551
2507,-2.27569,-14.59206,1.60352,41.50388,-7.14111,19.64568
2530,-1.17555,-13.77564,4.789,107.66594,-10.92528,35.45377
2553,1.00317,-11.70705,4.28023,148.68152,8.66699,36.79654
2576,3.57215,-10.6524,2.51571,177.4901,9.2163,24.16227
2600,3.88579,-11.00076,-0.94751,158.26405,39.36765,24.22331
2623,2.07458,-11.79683,-4.34847,127.9296,86.66985,43.08316
2646,2.2302,-12.82394,-5.11222,95.0927,141.78456,55.35122
2669,2.88501,-13.59488,-2.37086,63.59858,100.15862,46.92837
2693,-0.00359,-12.70064,1.56641,69.64106,-17.15087,57.18227
2717,0.41539,-10.6943,1.2384,70.67866,-40.03903,67.55824
2741,1.75375,-9.15722,-1.17615,45.10495,11.10839,68.04652
2767,2.00395,-7.9697,-2.03806,30.21238,20.93504,67.92445
2795,2.40737,-6.23031,-1.55084,33.2031,-6.59179,59.1354
2819,2.68749,-5.37079,-2.09433,28.32029,-49.1943,36.30826
2846,2.73298,-4.61782,-1.96744,20.26366,-68.17622,13.78631
2872,3.76967,-2.99335,-1.62267,1.83105,-61.76753,-12.45879
2898,3.8822,-2.60429,-1.60471,-32.1655,-50.59811,-33.39384
2923,3.66792,-2.99335,-0.40642,-54.62643,-43.15182,-50.30056
2946,2.74136,-5.2008,3.39917,1.70898,-65.73481,-49.44607
2970,-6.13754,-20.7272,17.9212,90.20989,-24.41405,-0.67902
2994,-5.31632,-22.0069,9.40263,2.2583,17.63915,15.37322
3018,-2.59531,-15.61079,6.6481,-35.82761,67.68794,19.70671
3045,-1.20069,-8.97407,4.30178,-19.59227,34.72898,45.03628
3072,0.71108,-2.94068,-2.88082,-38.57419,-29.90721,37.34586
3096,7.54892,-9.41101,-8.60416,-114.92911,-38.08591,-64.33863
3122,7.45435,-17.35377,6.37875,37.41452,132.75136,-69.34351
3148,0.99479,-8.32404,-8.9621,-16.23534,45.04391,21.17155
3174,3.05859,-4.56036,-8.48804,-129.76065,0.06104,14.03045
3200,5.28999,-5.07391,-2.70246,-142.94423,65.06342,-33.39384
3226,4.04141,-7.48846,-0.98821,-95.33685,64.51411,-58.05202
3252,0.14724,-11.37545,-2.61626,-53.03951,-15.25878,-43.83084
3278,-1.9405,-11.15997,-1.23002,-41.93112,-32.28757,-14.65606
3304,-1.43532,-10.25137,-0.22446,-50.35397,10.13183,-15.02227
3331,1.75136,-9.18835,0.07721,-54.32125,47.30221,-34.18729
3356,1.8148,-9.08061,-0.72963,-49.31637,37.10935,-38.82596
3380,0.89304,-9.03512,-1.56521,-45.41012,9.94872,-31.80692
3403,0.21548,-9.16441,-1.67534,-40.52731,-8.11767,-31.92899
3428,-0.7015,-10.22384,-2.38762,-42.54147,-18.67674,-29.8538
3454,-0.60813,-9.38826,-2.5205,-55.29781,-8.85009,-24.60478
3479,-0.22027,-8.20074,-1.78069,-69.39692,19.4702,-27.71757
3504,0.52313,-8.1337,-0.22326,-80.01703,44.43356,-31.68485
3529,1.78488,-11.47242,3.94505,-76.47699,54.50435,-23.50615
3555,1.84952,-10.59973,5.68443,-31.24998,70.9228,-26.49687
3580,-0.32681,-11.04625,1.45268,5.79834,31.92136,-26.80204
3606,-3.16394,-11.00555,-2.20326,20.44676,-6.65283,-21.49199
3633,-2.91614,-10.93851,-1.0313,7.38525,11.90185,-3.73077
3660,-2.36308,-12.90415,-1.10672,5.06591,-3.60107,25.56608
3686,-1.58736,-14.46158,-0.22685,52.12399,4.82177,34.59928
3713,-0.86311,-13.06217,3.68647,122.61953,-13.54979,30.57096
3738,0.87867,-10.87626,3.68528,172.48523,-8.42284,33.01237
3764,2.40138,-11.21265,3.48177,178.16148,11.90185,43.44937
3791,1.61848,-11.92851,-6.76422,108.88663,32.71482,63.34681
3817,2.43849,-12.88619,-4.93505,87.46331,88.80608,64.99476
3843,4.03303,-13.37461,-3.30939,76.78217,116.33292,49.12563
3867,1.30723,-11.92133,-1.04447,70.19038,16.72362,51.75014
3892,0.30526,-10.75176,-1.43353,62.68306,-92.16302,69.38929
3918,1.43652,-9.52473,-1.95187,54.56539,-100.46379,70.12171
3945,1.89381,-8.01279,-0.31304,55.17574,-19.10399,64.99476
3970,1.95487,-7.01082,-1.73639,40.95456,-1.70898,57.2433
3995,2.47201,-5.83407,-2.86167,23.25438,-44.73874,42.59488
4021,2.91135,-5.09426,-3.10468,11.53564,-80.26117,22.69743
4047,4.00789,-4.20601,-2.72879,-5.49316,-89.05022,3.77655
4073,5.73052,-3.30819,-1.84773,-28.07615,-70.9228,-37.66629
4098,6.61159,-2.24875,-0.19094,-51.33053,-67.13862,-71.17457
4123,4.16471,-3.25791,-0.47106,-46.63083,-142.94423,-66.65797
4148,-4.64834,-18.43834,22.46659,105.71281,-111.57218,-20.94267
4173,-3.99712,-23.59546,12.82275,8.78906,-37.41452,-6.11114
4198,-1.70467,-17.60756,5.26305,-78.67426,79.77289,6.46209
4224,-0.22386,-6.46494,2.78146,-77.33148,112.54874,48.027
4249,1.1959,-9.91618,-2.81738,-72.81489,29.47996,54.37465
4274,0.76375,-15.40848,2.27389,21.85057,-0.54932,18.1198
4300,1.24738,-14.63516,2.80181,6.04248,-35.70554,-40.35184
4327,-0.53989,-4.90752,-8.02836,-69.15279,-82.21429,-18.01299
4353,1.13485,-5.74668,-1.33656,-51.51363,-14.46532,-3.18146
4378,5.70419,-7.79133,0.93434,-28.01512,21.91161,-47.92019
4402,4.34907,-10.52072,-2.95026,-25.08543,-65.00239,-71.78492
4426,0.8248,-10.32918,-2.92392,-35.33933,-126.40372,-48.22537
4453,-0.62369,-10.40101,-2.73478,-51.6357,-122.00919,-21.8582
4479,-0.3699,-10.42016,-1.18932,-55.23677,-61.8896,-18.13506
4505,-0.1652,-10.26454,0.35494,-47.30221,-4.57763,-24.60478
4530,0.05986,-9.84196,-0.67457,-37.35349,-6.83593,-19.11162
4556,0.39265,-9.44932,-1.00257,-37.78074,-25.14647,-8.1253
4580,1.22823,-8.91062,-0.67337,-38.33005,-36.01072,-12.03155
4604,0.84515,-9.3727,-1.44311,-36.6821,-47.54635,-17.3416
4631,0.49321,-9.59177,-2.07278,-41.25974,-55.05367,-20.75957
4656,0.58538,-9.36312,-1.4048,-50.35397,-37.29245,-17.28057
4683,1.45328,-9.56663,1.70407,-50.53707,-12.32909,-14.16778
4708,2.00275,-10.10892,2.57556,-40.71042,10.86425,-15.87676
4733,1.89621,-10.71705,2.8485,-25.08543,27.89305,-19.66093
4759,0.67876,-11.08815,2.6833,7.20214,11.96288,-16.85332
4785,0.45969,-11.40658,-0.60394,39.42868,-40.77145,-17.76885
4810,1.21745,-10.87865,0.71407,35.52243,-14.34325,-10.07842
4837,0.79009,-10.75176,1.20368,41.99216,5.92041,-5.07354
4863,-4.21739,-13.79958,2.02968,80.01703,8.60595,14.76287
4890,-5.25408,-14.4125,2.9311,150.45154,3.23486,40.21451
4917,-2.3535,-11.64001,2.13742,195.19028,-78.00287,9.81902
4943,0.96007,-9.56543,-0.78829,195.9227,-179.19908,11.10076
4968,0.23583,-11.646,-2.5193,151.91638,-149.71913,50.2853
4991,-0.31244,-12.78085,-3.17531,103.21037,-8.97216,73.0514
5016,-0.85593,-12.90415,-5.96455,28.86961,62.25581,82.38977
5042,-4.1312,-12.08533,-8.97886,-20.87401,-43.39596,98.38097
5067,-4.27006,-11.8076,-1.34614,12.39013,-86.18158,107.96349
5093,-1.63285,-10.97562,-1.31382,22.03367,-162.41443,69.02308
5119,3.49075,-8.16722,-4.71478,1.0376,-242.37044,24.28435
5145,2.85509,-8.05948,-3.17651,-12.5122,-207.76352,22.88054
5171,2.64559,-7.70753,-3.27706,-26.91648,-146.66737,44.73111
5197,3.97437,-7.33763,-4.63817,-43.39596,-174.86559,33.19547
5222,4.47117,-7.6812,-4.58549,-54.87056,-213.74496,2.92206
5249,4.30956,-8.37192,-3.14059,-54.26022,-205.74936,-16.85332
5275,4.54539,-9.06624,-2.19488,-45.47116,-214.17221,-30.34208
5300,3.17471,-10.20828,1.62267,-19.89745,-234.74103,-29.60966
5326,3.98635,-11.69029,4.97216,35.33933,-268.31033,-40.53494
5350,4.06296,-12.95682,7.22391,85.75433,-282.8367,-35.7742
5376,2.92332,-12.06618,6.45297,79.28461,-204.7728,-9.22393
5403,2.20865,-8.98125,4.70401,18.79881,-12.5122,24.16227
5427,0.4142,-7.44537,-1.98659,-70.98383,88.07366,48.94253
5451,1.0331,-7.4334,-9.0842,-83.49603,-21.48436,24.10124
5477,2.43131,-10.3208,-7.55909,-29.7241,-135.86415,-11.6043
5502,3.04782,-10.22145,-3.36206,19.89745,-230.95686,-60.55445
5528,2.35589,-8.45692,-0.63027,31.24998,-250.06085,-63.0569
5553,2.91135,-7.99843,2.18411,10.37597,-224.60921,-36.07938
5578,1.26174,-9.74021,-0.7452,-27.58787,-159.912,-9.04083
5604,0.43096,-9.8683,-0.92596,-35.88865,-122.61953,-1.47247
5630,-0.32681,-10.33397,-0.36212,-12.08495,-120.17813,-6.96563
5655,-0.83677,-12.38221,-0.56324,20.14159,-134.27724,-8.61358
5681,-0.42976,-11.79803,-0.98701,16.54052,-116.33292,11.10076
5706,1.06303,-10.55903,-0.65541,3.84521,-82.51947,11.71111
5731,1.43652,-9.80485,-0.49141,10.49804,-64.20894,6.03485
5757,0.62968,-9.04589,-2.54683,16.96776,-67.44379,4.44793
5782,0.89064,-8.31446,-3.20524,7.81249,-71.04487,2.98309
5809,1.24379,-7.8871,-3.386,-2.50244,-82.51947,-1.3504
5837,1.8148,-8.40664,-3.38241,-10.86425,-87.82953,-9.95635
5864,1.90938,-8.78373,-3.10109,-15.56395,-89.78265,-16.79228
5891,1.92614,-9.34517,-3.13461,-20.99608,-91.12542,-23.87236
5917,1.35033,-10.15082,-1.74956,-16.72362,-94.48235,-26.43583
5943,1.1983,-10.58177,-0.30107,-5.61523,-101.74553,-29.67069
5970,0.93254,-10.89302,1.33177,9.39941,-82.70258,-31.50175
5996,-0.10534,-11.28447,2.46184,25.57371,-48.09567,-31.25761
6021,-0.72065,-11.97999,1.09116,46.63083,-43.21286,-31.0745
6047,-1.41856,-12.51748,-0.22206,74.82905,-78.67426,-27.5955
6072,-1.95965,-12.01231,-0.5381,93.44476,-117.49258,-15.69365
6097,-0.71228,-10.43094,3.95103,106.14006,-92.89544,-1.53351
6124,1.1564,-10.97562,5.54557,154.96814,-48.70602,5.05828
6150,2.32597,-11.46284,3.17052,155.9447,-12.75634,17.20427
6177,2.25414,-12.10927,-2.49536,118.65226,31.9824,38.38345
6203,2.16675,-12.85267,-3.92589,66.2231,33.2031,48.51529
6229,1.45567,-12.71261,-3.62901,42.05319,5.37109,59.92885
6256,-2.37625,-9.68395,-1.9806,32.10447,-36.499,93.5592
6282,-1.84593,-9.38467,-2.06679,-3.17383,-34.72898,112.54111
6308,-0.05028,-10.23461,-1.86808,-10.62011,-93.07854,92.46056
6333,0.80325,-10.74578,-0.27234,22.82713,-148.55945,73.0514
6359,0.89423,-9.65163,-0.49859,60.30269,-150.69569,65.60512
6384,2.95205,-8.02237,-0.18735,69.7021,-106.3842,50.65151
6409,4.3778,-6.92822,-0.19932,52.91744,-106.01798,41.55728
6433,5.63116,-5.39354,1.1139,9.64355,-87.52435,38.9938
6458,5.81312,-4.86562,1.84054,-32.28757,-15.25878,16.77703
6484,4.95719,-4.71957,1.43951,-42.11423,0.85449,-9.89532
6510,4.17788,-4.93265,1.46465,-45.77633,-1.58691,-30.83036
6536,1.25456,-6.83964,3.58113,-43.82321,-37.84177,-38.33768
6562,-0.55426,-9.71747,6.24707,-22.27781,-61.82857,-38.03251
6589,-1.23062,-15.00386,9.22426,-33.44724,31.37205,-23.26201
6616,-5.7796,-13.9157,7.1042,-55.60299,170.04382,38.9938
6642,-4.02346,-10.52551,4.42867,-38.39109,59.20406,33.19547
6666,0.79727,-13.61642,-1.23242,-28.74754,-86.54778,-20.45439
6690,2.49835,-17.03654,-0.77752,33.56931,54.32125,0.72479
6717,2.51391,-6.66007,-8.67958,-14.34325,53.95504,7.74383
6743,3.76967,-1.34614,-2.81019,-30.82273,-19.10399,-9.28497
6769,6.9384,-1.54127,2.71802,-53.40572,38.20798,-49.20193
6795,4.82312,-10.53628,-3.25073,-93.13958,118.0419,-62.50758
6820,1.42096,-11.20067,-5.13975,-115.05119,43.70114,-32.72245
6845,0.29688,-10.65839,-4.77224,-119.0795,-15.62499,-7.88116
6870,-0.53271,-10.6548,1.64542,-83.25189,17.27294,4.32586
6897,-1.13246,-10.56382,2.62225,-40.34421,103.88176,5.24139
6922,-0.38307,-9.83478,-1.17136,-32.65379,97.77825,-15.99883
6948,-0.31244,-9.34277,-3.54641,-32.22654,11.96288,-36.75077
6973,-0.88346,-8.81365,-1.73161,-28.80857,-43.51804,-44.19705
6998,-0.23703,-9.05906,-0.31903,-29.90721,-26.00096,-38.33768
7024,0.23104,-9.58698,-0.69252,-45.22702,13.54979,-28.8162
7052,0.60573,-9.36791,-1.24199,-56.39644,38.69626,-23.0789
7079,0.90621,-9.1656,-0.96786,-63.84273,26.36717,-22.52958
7104,1.18154,-9.35834,1.47303,-59.38716,48.33981,-28.99931
7130,-0.22386,-11.49037,2.73957,-27.40476,59.14302,-25.15409
7156,-0.4537,-11.00435,-0.43634,6.958,17.94432,-19.05058
7183,-1.47124,-10.91217,-1.93511,18.06639,2.74658,-15.93779
7209,-3.39498,-12.86345,-1.95786,7.93456,3.17383,-4.52423
7236,-3.87861,-14.72973,-1.71964,7.87353,-29.47996,22.33122
7262,-2.87783,-15.38215,2.29065,44.31149,-18.12743,36.06412
7289,0.61651,-12.28644,5.86879,135.68105,1.70898,44.12075
7315,2.95325,-11.08815,5.30615,193.23715,13.97704,46.44009
7342,2.57975,-11.53586,-0.98581,174.31628,-13.36669,59.68471
7369,2.32357,-12.30799,-6.20398,113.89152,-0.24414,70.36585
7395,4.15274,-12.61565,-3.86125,86.54778,89.29437,52.3605
7420,3.95762,-12.65994,-2.92152,64.02583,140.44179,44.60904
7445,1.41138,-13.17589,1.79266,69.45795,30.57859,74.39417
7470,1.64841,-9.50199,-1.18214,64.57515,-52.85641,90.62951
7496,3.60567,-7.44297,-0.67098,67.07758,-29.54099,63.65199
7522,3.99832,-6.17764,-1.50775,55.35884,-6.89697,44.05972
7548,2.75333,-5.55634,-2.86167,36.07175,-13.85497,38.50553
7573,2.65756,-5.13856,-2.77668,14.03808,-32.04343,31.60856
7599,3.5913,-4.21918,-2.00095,-0.12207,-44.12838,5.54657
7625,4.64595,-3.0544,-1.99497,-20.38573,-60.72994,-33.08866
7650,4.28203,-1.53528,-0.32501,-54.50435,-65.42964,-72.70045
7677,2.22661,-3.58352,2.12785,-50.47604,-103.51555,-81.85571
7703,-2.94367,-10.89302,14.21138,63.72066,-49.07223,-5.867
7729,-4.21499,-23.52124,7.33883,-30.70066,62.43892,28.73991
7756,-2.10331,-13.76367,5.54437,-60.24165,121.39884,15.73943
7782,-2.7258,-7.43938,5.43663,-26.67234,55.48092,37.04068
7808,3.02029,-16.19378,-3.49134,-52.97847,-55.90816,1.70135
7834,1.03908,-17.81107,0.46148,-5.7373,33.32517,4.87518
7860,2.87304,-8.92379,-5.27981,-29.35789,41.80905,-19.23369
7885,2.4768,-2.38403,-4.73034,-29.17478,19.59227,-27.90067
7913,6.22492,-5.30974,-1.8573,-59.20406,35.6445,-57.25856
7939,5.88615,-10.38665,-5.08349,-89.66058,54.99264,-80.32983
7965,-0.41779,-12.53065,-4.7471,-100.34172,-16.96776,-45.11258
7991,-2.64918,-10.74578,-0.75357,-85.75433,-53.58883,-2.08282
8015,-1.49278,-9.79049,1.92554,-60.54683,-3.78418,-4.8294
8038,0.32561,-9.42657,1.63584,-44.12838,42.29733,-39.86356
8059,1.18513,-8.81006,0.01975,-31.9824,25.63475,-54.08474
8081,1.14922,-8.80049,-1.13186,-23.37645,-15.62499,-47.49295
8105,0.75417,-9.16321,-2.44268,-32.22654,-53.77193,-41.26736
8130,0.06704,-9.60733,-2.56239,-49.68258,-45.7153,-40.84012
8155,-1.24379,-9.90302,-2.92392,-65.91792,-23.19334,-25.88652
8182,-1.04507,-9.24102,-2.17453,-74.58491,12.75634,-18.68437
8208,1.95127,-8.71908,1.49697,-78.0639,34.11863,-25.09306
8233,3.12084,-10.36989,2.80301,-65.67377,39.48972,-33.94315
8259,2.70904,-10.57938,3.82893,-28.5034,69.58002,-39.98563
8284,-2.0219,-11.51671,-0.81822,-7.20214,55.35884,-32.84452
8309,-3.4285,-11.50953,-2.31938,0.06104,2.92969,-18.62334
8334,-4.03303,-11.42334,-1.47064,1.64795,-12.32909,-5.56182
8359,-3.60327,-12.5127,-0.99898,10.98632,-37.23142,17.99773
8384,-2.96522,-16.23329,1.28269,38.63522,-40.40524,37.22379
8409,-1.47603,-16.03576,4.87519,93.13958,1.28174,48.75942
8434,1.90339,-12.14758,7.77098,172.72937,55.17574,50.2853
8458,4.43765,-11.24856,7.81886,206.17661,32.40965,53.21499
8482,1.78727,-12.50911,-8.33482,144.83632,-17.63915,70.06068
8509,2.21224,-13.4201,-6.50205,104.30901,6.46972,79.39905
8536,4.43167,-13.08611,-4.4167,77.51459,85.32709,55.96157
8562,1.87346,-11.82556,-1.49338,36.6821,98.81584,50.22427
8589,-1.24139,-11.69268,4.11025,67.74898,22.27781,87.69983
8614,0.20231,-9.82281,-0.15263,59.87545,-53.83297,93.00988
8640,2.40498,-7.65007,-1.70886,44.06735,-44.31149,70.61
8666,3.13042,-5.52043,-2.35769,24.04783,-9.0332,54.8019
8692,2.37026,-5.01047,-3.22439,9.82665,-24.10887,54.13051
8718,2.71143,-4.42389,-3.37403,2.4414,-51.6357,30.26578
8743,4.82671,-2.17812,-2.01053,-10.92528,-49.25534,-10.20049
8770,6.09085,-1.53768,-1.60591,-34.85105,-42.23629,-60.37135
8796,5.46357,-1.65858,-0.76195,-61.95063,-84.28949,-92.23168
8822,-4.12162,-12.82993,19.73121,48.70602,-107.97112,-66.96315
8848,-10.08438,-25.95015,16.24645,63.72066,-71.41108,20.80534
8875,-7.1024,-24.29815,5.23073,-102.53899,145.26357,33.92789
8902,-2.31759,-8.16123,5.34326,-48.64498,121.45988,32.0358
8928,1.41737,-12.91133,0.38487,-24.90232,16.05223,18.60808
8954,0.3711,-17.15745,-5.00687,-15.01464,-36.74314,4.44793
8980,4.50828,-11.75373,-5.47853,-0.12207,-9.94872,-42.61013
9005,3.28365,-0.98222,0.70928,-0.97656,-10.437,-51.03298
9031,4.75728,-3.97497,-2.03926,-55.72506,11.84081,-62.38551
9057,7.24485,-9.40742,-3.79661,-93.26165,50.96432,-85.94506
9082,0.42617,-12.28046,-2.81738,-95.03167,13.54979,-49.99539
9108,-0.49081,-10.20828,-3.71281,-99.48723,-69.33588,-14.41192
9133,0.36152,-9.26975,-2.56479,-89.72161,-70.80073,-13.25225
9159,-0.04908,-9.02794,3.8804,-53.46676,32.40965,-33.82108
9185,0.03831,-8.74063,0.4543,-31.37205,48.1567,-54.57302
9209,0.11013,-9.10934,-1.91716,-27.03855,-11.2915,-50.97195
9235,0.13527,-9.54748,-2.72281,-34.60691,-54.68746,-33.88212
9261,-0.17238,-9.28651,-2.41994,-54.44332,-32.71482,-20.75957
9287,0.12689,-8.68317,-1.6502,-71.65522,18.61571,-18.74541
9313,0.66679,-8.38629,-0.95589,-75.19525,18.61571,-25.39824
9340,2.14281,-9.24581,0.18495,-78.85736,8.23974,-35.22489
9365,2.50673,-10.48481,3.07954,-64.39204,32.77586,-38.21561
9390,0.90142,-11.66754,4.88357,-23.07127,59.02095,-30.22001
9417,-1.48201,-11.50953,0.87568,6.53076,14.16015,-22.16337
9442,-2.82157,-11.33834,-2.71323,14.52636,-16.23534,-15.32744
9468,-2.50314,-11.34911,-0.03891,5.24902,34.60691,-4.76837
9494,-2.75094,-13.36024,-0.1634,15.9912,7.44628,26.96989
9520,-2.81917,-15.24687,3.52845,71.9604,-25.14647,45.03628
9547,-1.18752,-13.31835,5.89393,171.08142,-30.33445,47.53872
9574,1.86987,-11.91654,7.06708,209.41147,7.01904,58.70815
9600,1.94289,-13.23814,-8.4246,144.65321,11.35253,76.65247
9625,3.1388,-13.94323,-7.28855,92.28509,48.09567,81.35217
9651,5.15352,-14.39454,-3.85646,75.31733,134.76552,63.8351
9678,2.46603,-13.05259,1.07081,75.37836,71.16694,63.65199
9704,1.1133,-11.38024,-1.1151,59.26509,-77.14838,75.73694
9729,1.92973,-9.78091,-2.20087,34.36277,-79.956,80.0094
9755,2.07458,-7.02279,-1.00137,29.66306,-32.34861,82.51184
9781,2.0243,-6.04476,-1.23481,38.20798,-15.01464,75.43177
9806,2.56539,-5.13616,-2.21763,32.89792,-27.28269,55.47329
9830,3.54581,-4.05997,-2.68929,25.2075,-55.90816,24.40642
9853,3.88699,-2.97061,-2.5169,18.67674,-68.4814,-0.19073
9875,5.67785,-1.88364,-2.0249,-2.13623,-66.16206,-34.79764
9899,6.45597,-1.64302,-1.01574,-35.33933,-43.94528,-74.83668
9922,5.25527,-2.77548,0.60154,-53.58883,-52.61226,-94.55102
9948,1.17914,-7.07427,6.71753,7.32421,-95.94719,-71.78492
9974,-7.31788,-18.1666,20.61108,60.54683,-22.7661,31.73063
10001,-3.09091,-20.17654,5.4486,-84.22845,127.68546,32.40202
10028,-2.21583,-10.28968,5.30376,-58.34957,124.8168,28.86198
10054,-4.03902,-5.91188,4.10426,-27.03855,55.90816,41.25211
10079,2.08774,-17.02457,-6.43262,-53.83297,-67.56587,-10.13946
10106,3.74094,-15.56052,-0.993,6.04248,51.02535,-25.88652
10133,4.85065,-6.4015,-0.02693,34.48484,19.10399,-51.5823
10160,3.38061,-4.46459,-4.63697,-50.10983,-38.33005,-32.53934
10185,6.95994,-9.1261,-4.86681,-107.36076,28.56443,-69.16042
10211,6.08486,-12.50671,-3.44585,-110.41251,59.08199,-65.86451
10237,-1.3204,-10.51474,-1.74477,-95.21477,-11.2915,-25.3372
10262,-0.66679,-9.13448,-1.18214,-81.29877,-58.59371,-8.18633
10289,0.54348,-8.919,0.25079,-62.0727,-7.9956,-33.76005
10316,0.89423,-9.08779,0.70928,-38.81833,34.72898,-61.65309
10342,-0.11013,-9.41939,-1.64901,-28.74754,1.64795,-53.59646
10369,-0.67756,-9.50438,-2.78625,-36.499,-37.23142,-34.06522
10396,-1.29167,-9.17518,-2.80421,-54.87056,-36.19382,-20.69853
10421,-1.18752,-8.85795,-2.38043,-77.27045,-10.98632,-11.66534
10447,0.18675,-8.41861,-1.33417,-90.82024,2.2583,-19.90508
10472,2.74136,-9.33679,1.46705,-87.70746,1.52588,-31.31864
10498,3.32315,-10.31362,4.62979,-58.4106,38.51316,-39.61942
10523,1.83516,-11.83873,5.70359,-11.71874,73.05903,-36.93387
10548,-1.07978,-11.72261,0.82061,8.48388,30.63962,-28.57206
10573,-3.16154,-10.88105,-3.67211,6.89697,-13.7329,-16.54815
10600,-3.15436,-10.79366,-2.20207,-2.62451,-7.01904,-4.09698
10625,-2.82875,-13.44045,-1.49219,0.36621,-6.83593,20.98845
10651,-2.065,-15.13674,-0.32501,56.03023,-9.88769,43.26626
10678,-0.17238,-13.73015,5.3265,134.94862,-10.68114,45.5856
10703,1.78009,-12.02667,5.89632,184.4481,20.44676,51.68911
10730,3.20344,-12.43848,2.99814,166.93103,37.65866,59.86782
10757,1.04746,-12.60248,-7.78056,111.26701,2.86865,82.81702
10782,2.96402,-13.24053,-5.13736,95.03167,60.05855,69.93861
10807,4.98832,-13.30159,-3.06757,81.48187,128.05167,39.48209
10833,1.16717,-12.82275,1.80822,85.81536,47.72946,49.73598
10859,0.76016,-11.14202,-0.97264,70.49555,-61.95063,79.03284
10886,1.58855,-9.28292,-2.39719,35.33933,-30.7617,90.20226
10912,2.78087,-6.22433,-0.56324,34.91208,24.10887,83.85461
10937,3.09091,-5.55156,-1.70407,36.74314,6.83593,63.22475
10964,3.23457,-5.08109,-2.62225,30.27341,-36.13279,38.8107
10990,3.36744,-4.47297,-2.64619,18.37157,-57.25093,13.96941
11015,4.98832,-2.61267,-2.43191,-4.15039,-57.67818,-22.65166
11041,5.89093,-1.84773,-2.12545,-41.25974,-39.73386,-60.7986
11067,5.68264,-1.33656,-0.95469,-82.64154,-49.74361,-91.98754
11093,-1.04866,-9.22666,11.44847,-35.15622,-113.40324,-86.8606
11118,-9.29549,-24.0731,25.86157,110.77873,-46.08151,4.20379
11144,-8.39048,-28.12529,7.91224,-85.57123,134.2162,38.9938
11169,-3.55539,-8.52156,5.60303,-76.53802,166.19861,37.95621
11195,-0.62249,-9.69592,0.88406,-26.48924,51.08639,34.90445
11222,0.96965,-16.63192,-3.22918,-2.62451,-35.27829,14.33562
11249,5.13676,-6.33685,-5.57669,10.2539,2.4414,-31.37967
11275,2.90896,-0.93553,0.36093,18.98192,-38.26901,-38.27664
11301,3.08852,-1.25636,0.02095,-37.84177,-5.43213,-29.12138
11327,6.12557,-6.47691,-3.93906,-106.14006,71.16694,-57.38063
11353,3.35907,-12.46002,-3.98335,-119.75089,71.53315,-61.65309
11381,-0.70749,-12.24694,-2.86766,-97.22893,-10.31493,-19.66093
11406,-2.24816,-11.25454,-0.39564,-69.27485,-22.46092,2.37274
11431,0.33279,-9.93414,0.35614,-52.24605,12.6953,-15.26641
11457,1.08577,-9.0423,-0.75477,-42.23629,24.78025,-55.0613
11483,0.97683,-8.46889,-1.40599,-28.74754,-20.6909,-60.73757
11506,0.89064,-9.01237,-1.98659,-27.09959,-60.30269,-50.78884
11530,0.88825,-9.30447,-2.48458,-41.68698,-54.07711,-41.45047
11557,0.59017,-9.65641,-3.18608,-74.2187,-5.85937,-31.13554
11582,0.33998,-9.13927,-2.88561,-89.29437,34.30173,-21.24785
11608,2.40498,-8.93696,2.48099,-84.83881,47.60738,-18.98955
11634,2.94966,-11.38263,5.46536,-68.05415,74.2187,-25.15409
11660,0.69073,-11.25454,5.29178,-22.33885,92.40716,-26.80204
11686,-1.64242,-11.10131,1.32699,13.54979,33.69138,-18.62334
11711,-2.53905,-11.66635,-2.8509,18.98192,-2.68554,-15.75469
11738,-2.78326,-11.56459,-2.75513,8.78906,-2.13623,-7.82012
11764,-2.12126,-12.44446,-1.68851,6.958,5.18798,16.04461
11791,0.36871,-14.59565,3.01729,44.55563,12.14599,27.39713
11817,0.88466,-14.06893,5.37079,132.81239,25.2075,36.5524
11844,1.80283,-11.17194,5.44142,185.66881,50.65914,45.70767
11869,2.93529,-10.75416,-0.29509,189.94127,72.50971,59.01332
11895,2.1895,-11.48319,-5.51804,127.31924,64.69722,83.12219
11920,2.40857,-11.85429,-6.32369,87.09711,98.81584,77.62904
11948,3.57095,-12.472,-2.70485,56.82369,128.4789,49.18667
11973,-0.13048,-12.0566,0.27114,48.70602,37.41452,51.38393
11998,-2.18471,-11.28806,0.25438,42.84665,-75.37836,76.95765
12024,-2.01951,-10.31961,-1.71485,25.87889,-102.41692,99.11339
12049,1.17555,-7.89428,-1.80463,13.12255,-48.33981,83.4884
12075,2.0662,-6.61817,-2.28706,5.00488,-43.57907,51.3229
12101,1.99317,-6.06751,-2.82815,-2.56347,-82.33636,29.5944
12128,2.37026,-5.32291,-2.61028,-13.7329,-116.88224,13.54216
12153,3.74693,-4.41431,-2.53247,-30.27341,-139.16005,-17.03642
12179,4.84946,-3.69964,-2.21404,-43.88425,-141.11317,-44.6243
12205,4.87459,-5.87836,-1.16179,-56.03023,-177.18492,-75.81323
12232,0.50877,-10.59614,5.70838,-8.85009,-200.01207,-61.16481
12258,-6.31112,-19.83656,24.36998,154.96814,-157.71472,-1.1673
12285,-0.87747,-15.92922,2.58035,10.98632,-158.87439,1.45721
12312,3.49434,-9.994,4.85005,-40.52731,-17.51708,4.75311
12337,3.03465,-5.1613,5.56951,-22.9492,101.80656,49.98013
12363,-0.55186,-5.63296,-6.6481,-84.96088,-22.39989,64.26234
12388,6.98748,-13.81155,3.8409,-13.18358,-66.77242,-28.14482
12413,2.86706,-12.48157,4.2108,40.71042,-171.81383,-65.62038
12441,-0.22386,-8.85077,-4.42867,1.64795,-234.06966,-44.44119
12467,-0.19992,-9.37869,-4.5819,-28.19822,-232.42169,-22.83476
12493,0.80206,-9.02434,-0.58718,-24.1699,-155.63954,-19.47783
12517,1.47243,-9.68634,1.05165,-8.05663,-126.70889,-20.39336
12541,0.53989,-10.01315,-0.02095,-2.31933,-144.95839,-11.29912
12567,-0.74699,-10.08138,-2.22361,-6.04248,-175.96422,4.81414
12594,0.13048,-9.84556,-1.80104,-23.19334,-173.1566,6.03485
12619,0.68354,-9.79169,-0.64105,-33.2031,-156.61609,3.95965
12646,0.40462,-10.67036,-0.63626,-22.03367,-146.42323,2.86102
12672,-0.22625,-10.39981,-1.89202,-8.48388,-143.49355,3.04413
12698,-0.55306,-9.69712,-3.15137,-17.33397,-138.1835,9.0866
12723,0.06105,-8.96449,-3.80858,-28.07615,-138.12247,13.78631
12749,1.17316,-9.2099,-2.90716,-24.90232,-142.0287,8.41522
12775,2.31759,-9.54269,-1.92673,-12.39013,-152.83191,-4.09698
12801,3.75171,-9.64684,-0.90082,-2.38037,-160.88855,-18.80644
12827,4.0474,-9.52234,-0.23523,5.00488,-143.79872,-26.00859
12853,4.12641,-9.44812,-0.16939,6.958,-111.87736,-30.76933
12878,3.82474,-9.18954,-1.03848,-4.15039,-99.30413,-39.31424
12905,1.30005,-9.31404,-1.46585,-8.48388,-104.24797,-42.85428
12930,0.17238,-9.73901,-0.48303,2.56347,-98.81584,-42.73221
12955,-0.6177,-10.65001,0.32142,17.2119,-85.51019,-36.38456
12981,-0.54468,-12.19427,-0.07841,33.14207,-83.6181,-26.80204
13006,-0.21668,-12.22539,-1.49578,50.96432,-117.73672,-24.05546
13032,-0.17597,-11.90337,-2.39001,64.51411,-152.0995,-23.99443
13058,-0.41779,-10.88225,-1.25157,76.72113,-123.29092,-16.05986
13085,-0.18914,-8.95611,2.87005,115.47843,-84.41155,-6.9046
13111,1.72861,-9.03632,3.07116,154.60193,-94.54339,-11.17705
13136,1.60531,-10.22384,1.33896,159.78993,-76.84321,6.70623
13162,-0.72305,-11.7669,-1.66457,132.32413,-13.67187,31.24235
13188,-1.52152,-11.65677,-2.8473,66.46723,72.50971,59.1354
13214,-2.34751,-11.92731,-7.77697,-22.15574,5.18798,93.49816
13239,-4.7477,-13.08611,-3.45902,-33.26413,-86.05951,127.06747
13264,-4.85664,-13.08012,1.34135,22.15574,-105.52971,141.83797
13288,-2.32238,-11.37306,-1.59993,25.02439,-141.90663,115.83701
13315,-1.02951,-9.67557,-3.26868,13.12255,-199.64584,67.55824
13341,0.44652,-9.4972,-2.16735,10.2539,-169.1283,58.52504
13368,1.18513,-9.4146,-3.26749,15.62499,-176.81873,60.60024
13393,1.97881,-9.49241,-3.78224,27.89305,-204.46762,59.74574
13421,3.87382,-8.45213,-1.19291,31.92136,-187.86607,42.16763
13448,4.33351,-7.83802,0.3705,19.4702,-145.08046,21.29362
13472,5.10683,-7.35319,1.1965,-2.62451,-104.1259,5.97381
13496,5.87417,-6.63972,1.83815,-16.72362,-70.86176,-5.74493
13521,5.10803,-5.00927,2.45944,-27.40476,-44.31149,-26.25273
13547,3.23457,-5.3253,3.06159,-33.63034,-30.63962,-46.82156
13574,2.77009,-7.35918,4.80456,-28.80857,-18.37157,-57.19753
13599,-8.62032,-14.94999,5.15172,-67.81001,55.48092,18.42497
13626,-14.58907,-15.22413,-0.64943,-145.56874,155.02917,127.00644
13650,-9.56124,-11.54903,-0.47106,-64.331,68.42036,99.96789
13675,-3.4273,-7.51121,-1.10672,-16.47948,-58.16646,-10.32256
13701,0.4537,-16.95993,7.18919,60.97408,14.03808,-107.85667
13726,-4.94283,-18.81902,7.01202,96.00822,8.72802,-42.73221
13753,2.3128,-9.78091,-1.60352,-5.00488,-91.12542,-49.44607
13778,2.67073,-4.88597,-4.61063,-70.00727,-118.95743,-27.47343
13804,3.61644,-6.42903,-1.25875,-51.02535,-33.02,-16.48711
13831,5.60961,-8.18159,-1.30304,-23.25438,-6.10351,-61.10378
13857,2.98677,-10.8176,-3.20524,-26.06199,-85.57123,-78.31567
13884,0.64763,-10.20229,-1.11869,-32.28757,-124.20644,-51.64333
13911,0.63446,-9.98083,-0.29628,-43.33493,-104.67522,-39.68045
13937,0.55905,-9.9102,-0.28551,-48.88913,-76.90424,-33.39384
13965,0.25259,-9.76176,-0.9906,-43.33493,-59.4482,-18.44023
13990,0.34955,-9.22306,-1.4874,-42.96872,-39.48972,-10.93291
14013,0.1221,-9.08181,-1.59753,-44.43356,-27.70994,-11.36016
14038,0.46208,-9.4146,-0.71527,-45.28805,-10.437,-14.59502
14063,0.60454,-9.85034,-1.45508,-50.2319,-9.46044,-11.6043
14090,1.34315,-9.84795,-2.07039,-68.29829,-31.73826,-14.35088
14116,2.0231,-9.39545,1.58317,-61.15718,-20.38573,-19.96611
14140,1.87346,-10.02153,3.73076,-31.12791,35.94968,-23.81132
14165,1.35512,-10.07779,2.38283,-15.62499,68.8476,-25.45927
14189,0.06464,-9.83478,0.42078,-10.98632,60.72994,-24.23857
14215,-1.42096,-10.51833,-3.24115,-14.52636,5.31005,-18.62334
14241,-1.72023,-10.94928,-3.34889,-3.90625,-43.6401,-14.16778
14268,-1.19351,-11.97161,-2.37565,-4.02832,-40.95456,-9.65118
14295,-1.63045,-14.05935,1.4036,9.52148,-6.22558,-1.1673
14321,-2.81199,-14.31673,3.18848,61.64546,-10.19286,15.31218
14347,-2.86945,-14.21976,3.38121,113.52531,-14.16015,35.75895
14373,1.41138,-10.56382,2.67133,156.73817,-30.45652,40.09244
14400,3.02507,-10.12807,1.66098,181.39636,-41.56491,43.99868
14427,2.02071,-11.17314,-2.67612,147.09462,-14.46532,63.10268
14453,2.36906,-11.87105,-5.25348,95.70306,51.4526,68.5348
14478,3.22738,-12.05421,-4.68485,60.36372,127.56339,56.69399
14503,1.6089,-12.62522,-2.23559,47.24117,129.02823,66.33754
14529,-1.35272,-13.44404,0.80146,52.91744,-1.77002,102.04308
14553,1.01873,-10.16997,-1.14144,46.99704,-74.82905,108.5128
14578,3.44765,-7.90386,-0.60154,46.20358,-41.62595,76.7135
14604,3.88459,-6.60381,-1.92314,39.73386,-26.55027,47.47769
14630,3.55539,-5.80414,-2.16975,32.22654,-28.56443,36.91861
14656,4.05697,-4.0037,-2.30981,16.60155,-60.72994,12.93181
14681,4.77284,-2.99814,-1.80942,-10.80322,-58.47164,-23.38408
14707,5.20499,-2.10869,-0.77153,-34.97312,-34.79001,-55.48854
14734,4.86981,-2.8473,0.2891,-63.9648,-30.02928,-100.71557
14760,0.71826,-6.87435,5.16489,-28.19822,-96.06927,-96.87035
14787,-7.82305,-17.04492,19.96106,55.35884,-109.98528,-1.83868
14812,-6.75644,-22.49652,6.76302,-65.42964,107.11662,49.49184
14838,-3.13162,-12.07815,6.28418,-60.24165,183.83775,46.50113
14865,-2.45286,-5.41748,3.64697,-22.88817,20.93504,25.87126
14890,5.04458,-15.02182,-8.47847,-44.79977,-118.0419,-40.65701
14916,2.96761,-15.91486,0.51775,-1.09863,36.43796,-22.59062
14942,2.17034,-7.6788,1.23361,-2.50244,73.73042,-12.58086
14968,2.78326,-2.15059,-1.55324,-67.26069,-2.31933,-19.17265
14993,6.89171,-8.86513,-2.82456,-95.2758,5.49316,-53.41335
15020,4.8722,-11.01273,-1.94828,-66.28413,20.44676,-67.87867
